time,gFx,gFy,gFz,ax,ay,az,wx,wy,wz,,ground truth
0.002,-0.0329,0.3582,0.9719,-0.3696,0.0312,-0.0554,0.012,-0.0952,-0.274,,no
0.02,-0.0312,0.3646,1.0199,-0.3696,0.0312,-0.0554,0.012,-0.0952,-0.274,,no
0.035,-0.0182,0.3626,0.9677,-0.3696,0.0312,-0.0554,0.012,-0.0952,-0.274,,no
0.054,-0.0211,0.3647,0.9192,-0.3696,0.0312,-0.0554,0.012,-0.0952,-0.274,,no
0.074,-0.0222,0.3684,0.8903,-0.3696,0.0312,-0.0554,0.012,-0.0952,-0.274,,no
0.097,-0.0163,0.3701,0.8718,-0.3696,0.0312,-0.0554,0.012,-0.0952,-0.274,,no
0.114,-0.0124,0.3718,0.8699,-0.3696,0.0312,-0.0554,0.012,-0.0952,-0.274,,no
0.134,-0.0067,0.3656,0.9,-0.3696,0.0312,-0.0554,0.012,-0.0952,-0.274,,no
0.14,-0.0067,0.3656,0.9,-0.3696,0.0312,-0.0554,0.012,-0.0952,-0.274,,no
0.154,0.0047,0.3622,0.9426,-0.3696,0.0312,-0.0554,0.012,-0.0952,-0.274,,no
0.154,0.0047,0.3622,0.9426,-0.3696,0.0312,-0.0554,0.0209,-0.1234,-0.1309,,no
0.154,0.0047,0.3622,0.9426,-0.1767,0.0557,0.1137,0.0209,-0.1234,-0.1309,,no
0.173,0.0157,0.3631,0.9276,-0.1767,0.0557,0.1137,0.0209,-0.1234,-0.1309,,no
0.195,0.0131,0.3646,0.8859,-0.1767,0.0557,0.1137,0.0209,-0.1234,-0.1309,,no
0.213,0.0026,0.3672,0.8762,-0.1767,0.0557,0.1137,0.0209,-0.1234,-0.1309,,no
0.233,-0.004,0.3628,0.9061,-0.1767,0.0557,0.1137,0.0209,-0.1234,-0.1309,,no
0.251,-0.004,0.3628,0.9061,-0.1767,0.0557,0.1137,0.0209,-0.1234,-0.1309,,no
0.253,-0.0129,0.3596,0.9204,-0.1767,0.0557,0.1137,0.0209,-0.1234,-0.1309,,no
0.273,-0.0006,0.3684,0.8979,-0.1767,0.0557,0.1137,0.0209,-0.1234,-0.1309,,no
0.293,0.0102,0.3785,0.8576,-0.1767,0.0557,0.1137,0.0209,-0.1234,-0.1309,,no
0.316,0.0015,0.3807,0.8378,-0.1767,0.0557,0.1137,0.0209,-0.1234,-0.1309,,no
0.333,-0.0025,0.3736,0.875,-0.1767,0.0557,0.1137,0.0209,-0.1234,-0.1309,,no
0.342,-0.0025,0.3736,0.875,-0.1767,0.0557,0.1137,0.0209,-0.1234,-0.1309,,no
0.353,-0.0025,0.3736,0.875,0.0987,0.0758,-0.2007,0.0209,-0.1234,-0.1309,,no
0.354,-0.0008,0.3626,0.9404,0.0987,0.0758,-0.2007,0.0209,-0.1234,-0.1309,,no
0.355,-0.0008,0.3626,0.9404,0.0987,0.0758,-0.2007,0.002,-0.0462,-0.192,,no
0.373,-0.0044,0.3526,0.9875,0.0987,0.0758,-0.2007,0.002,-0.0462,-0.192,,no
0.393,-0.015,0.349,0.9734,0.0987,0.0758,-0.2007,0.002,-0.0462,-0.192,,no
0.416,-0.0323,0.3506,0.9364,0.0987,0.0758,-0.2007,0.002,-0.0462,-0.192,,no
0.433,-0.0432,0.352,0.9129,0.0987,0.0758,-0.2007,0.002,-0.0462,-0.192,,no
0.452,-0.026,0.3446,0.8952,0.0987,0.0758,-0.2007,0.002,-0.0462,-0.192,,no
0.452,-0.026,0.3446,0.8952,0.0987,0.0758,-0.2007,0.002,-0.0462,-0.192,,no
0.472,-0.0193,0.3474,0.8822,0.0987,0.0758,-0.2007,0.002,-0.0462,-0.192,,no
0.492,-0.02,0.3496,0.9125,0.0987,0.0758,-0.2007,0.002,-0.0462,-0.192,,no
0.512,-0.0279,0.3514,0.9489,0.0987,0.0758,-0.2007,0.002,-0.0462,-0.192,,no
0.533,-0.0272,0.3592,0.9467,0.0987,0.0758,-0.2007,0.002,-0.0462,-0.192,,no
0.543,-0.0272,0.3592,0.9467,0.0987,0.0758,-0.2007,0.002,-0.0462,-0.192,,no
0.552,-0.0139,0.3637,0.9299,0.0987,0.0758,-0.2007,0.002,-0.0462,-0.192,,no
0.553,-0.0139,0.3637,0.9299,-0.3176,-0.0493,0.1713,0.002,-0.0462,-0.192,,no
0.553,-0.0139,0.3637,0.9299,-0.3176,-0.0493,0.1713,-0.017,-0.2105,-0.2689,,no
0.573,-0.0005,0.3716,0.9259,-0.3176,-0.0493,0.1713,-0.017,-0.2105,-0.2689,,no
0.591,0.0038,0.3744,0.9054,-0.3176,-0.0493,0.1713,-0.017,-0.2105,-0.2689,,no
0.611,-0.0094,0.3725,0.8941,-0.3176,-0.0493,0.1713,-0.017,-0.2105,-0.2689,,no
0.631,-0.0084,0.3651,0.9027,-0.3176,-0.0493,0.1713,-0.017,-0.2105,-0.2689,,no
0.651,-0.0107,0.3648,0.9148,-0.3176,-0.0493,0.1713,-0.017,-0.2105,-0.2689,,no
0.654,-0.0107,0.3648,0.9148,-0.3176,-0.0493,0.1713,-0.017,-0.2105,-0.2689,,no
0.671,-0.021,0.3625,0.9243,-0.3176,-0.0493,0.1713,-0.017,-0.2105,-0.2689,,no
0.69,-0.0306,0.3597,0.9151,-0.3176,-0.0493,0.1713,-0.017,-0.2105,-0.2689,,no
0.71,-0.0373,0.3593,0.9129,-0.3176,-0.0493,0.1713,-0.017,-0.2105,-0.2689,,no
0.732,-0.0366,0.363,0.9183,-0.3176,-0.0493,0.1713,-0.017,-0.2105,-0.2689,,no
0.745,-0.0366,0.363,0.9183,-0.3176,-0.0493,0.1713,-0.017,-0.2105,-0.2689,,no
0.75,-0.034,0.3598,0.937,-0.3176,-0.0493,0.1713,-0.017,-0.2105,-0.2689,,no
0.751,-0.034,0.3598,0.937,-0.3176,-0.0493,0.1713,0.0199,-0.1221,-0.2378,,no
0.751,-0.034,0.3598,0.937,-0.3091,0.0374,0.016,0.0199,-0.1221,-0.2378,,no
0.77,-0.0414,0.36,0.9302,-0.3091,0.0374,0.016,0.0199,-0.1221,-0.2378,,no
0.79,-0.0433,0.3656,0.8956,-0.3091,0.0374,0.016,0.0199,-0.1221,-0.2378,,no
0.809,-0.0323,0.367,0.8814,-0.3091,0.0374,0.016,0.0199,-0.1221,-0.2378,,no
0.831,-0.0315,0.3681,0.9074,-0.3091,0.0374,0.016,0.0199,-0.1221,-0.2378,,no
0.85,-0.0349,0.3677,0.9263,-0.3091,0.0374,0.016,0.0199,-0.1221,-0.2378,,no
0.855,-0.0349,0.3677,0.9263,-0.3091,0.0374,0.016,0.0199,-0.1221,-0.2378,,no
0.87,-0.0316,0.3652,0.9099,-0.3091,0.0374,0.016,0.0199,-0.1221,-0.2378,,no
0.889,-0.0301,0.3663,0.9,-0.3091,0.0374,0.016,0.0199,-0.1221,-0.2378,,no
0.909,-0.0327,0.364,0.916,-0.3091,0.0374,0.016,0.0199,-0.1221,-0.2378,,no
0.929,-0.0254,0.3629,0.927,-0.3091,0.0374,0.016,0.0199,-0.1221,-0.2378,,no
0.946,-0.0254,0.3629,0.927,-0.3091,0.0374,0.016,0.0199,-0.1221,-0.2378,,no
0.949,-0.0111,0.3688,0.9275,-0.3091,0.0374,0.016,0.0199,-0.1221,-0.2378,,no
0.949,-0.0111,0.3688,0.9275,-0.3091,0.0374,0.016,-0.0093,-0.0643,-0.1023,,no
0.949,-0.0111,0.3688,0.9275,-0.4547,0.051,-0.0165,-0.0093,-0.0643,-0.1023,,no
0.969,-0.004,0.3717,0.9077,-0.4547,0.051,-0.0165,-0.0093,-0.0643,-0.1023,,no
0.989,-0.016,0.376,0.8969,-0.4547,0.051,-0.0165,-0.0093,-0.0643,-0.1023,,no
1.009,-0.014,0.3771,0.9037,-0.4547,0.051,-0.0165,-0.0093,-0.0643,-0.1023,,no
1.029,0.0014,0.3722,0.9165,-0.4547,0.051,-0.0165,-0.0093,-0.0643,-0.1023,,no
1.049,0.0043,0.3686,0.9095,-0.4547,0.051,-0.0165,-0.0093,-0.0643,-0.1023,,no
1.057,0.0043,0.3686,0.9095,-0.4547,0.051,-0.0165,-0.0093,-0.0643,-0.1023,,no
1.068,-0.0017,0.3718,0.9096,-0.4547,0.051,-0.0165,-0.0093,-0.0643,-0.1023,,no
1.088,-0.0058,0.376,0.9088,-0.4547,0.051,-0.0165,-0.0093,-0.0643,-0.1023,,no
1.108,-0.002,0.3752,0.904,-0.4547,0.051,-0.0165,-0.0093,-0.0643,-0.1023,,no
1.128,0.0224,0.3808,0.8974,-0.4547,0.051,-0.0165,-0.0093,-0.0643,-0.1023,,no
1.148,0.0473,0.3829,0.89,-0.4547,0.051,-0.0165,-0.0093,-0.0643,-0.1023,,no
1.149,0.0473,0.3829,0.89,-0.4547,0.051,-0.0165,-0.0038,-0.0194,0.0583,,no
1.149,0.0473,0.3829,0.89,-0.1812,0.1471,-0.0894,-0.0038,-0.0194,0.0583,,no
1.149,0.0473,0.3829,0.89,-0.1812,0.1471,-0.0894,-0.0038,-0.0194,0.0583,,no
1.168,0.0009,0.3771,0.9147,-0.1812,0.1471,-0.0894,-0.0038,-0.0194,0.0583,,no
1.188,0.0042,0.3525,0.9239,-0.1812,0.1471,-0.0894,-0.0038,-0.0194,0.0583,,no
1.208,0.1251,0.3149,0.8809,-0.1812,0.1471,-0.0894,-0.0038,-0.0194,0.0583,,no
1.228,0.0315,0.421,0.8968,-0.1812,0.1471,-0.0894,-0.0038,-0.0194,0.0583,,no
1.247,0.0484,0.4453,0.8823,-0.1812,0.1471,-0.0894,-0.0038,-0.0194,0.0583,,no
1.259,0.0484,0.4453,0.8823,-0.1812,0.1471,-0.0894,-0.0038,-0.0194,0.0583,,no
1.267,0.1254,0.3865,0.8025,-0.1812,0.1471,-0.0894,-0.0038,-0.0194,0.0583,,no
1.287,0.0307,0.3573,0.872,-0.1812,0.1471,-0.0894,-0.0038,-0.0194,0.0583,,no
1.307,-0.0959,0.4005,0.906,-0.1812,0.1471,-0.0894,-0.0038,-0.0194,0.0583,,no
1.327,-0.097,0.37,0.9567,-0.1812,0.1471,-0.0894,-0.0038,-0.0194,0.0583,,no
1.347,-0.0579,0.3547,0.9437,-0.1812,0.1471,-0.0894,-0.0038,-0.0194,0.0583,,no
1.347,-0.0579,0.3547,0.9437,-0.1812,0.1471,-0.0894,0.0333,0.0899,-0.1637,,no
1.348,-0.0579,0.3547,0.9437,0.1677,0.1069,-0.124,0.0333,0.0899,-0.1637,,no
1.348,-0.0579,0.3547,0.9437,0.1677,0.1069,-0.124,0.0333,0.0899,-0.1637,,no
1.367,-0.0188,0.3608,0.9629,0.1677,0.1069,-0.124,0.0333,0.0899,-0.1637,,no
1.387,-0.0211,0.3799,0.9303,0.1677,0.1069,-0.124,0.0333,0.0899,-0.1637,,no
1.406,-0.0428,0.3626,0.9055,0.1677,0.1069,-0.124,0.0333,0.0899,-0.1637,,no
1.426,-0.0965,0.3468,0.9373,0.1677,0.1069,-0.124,0.0333,0.0899,-0.1637,,no
1.446,-0.0417,0.2935,0.9658,0.1677,0.1069,-0.124,0.0333,0.0899,-0.1637,,no
1.466,-0.0231,0.3481,0.9267,0.1677,0.1069,-0.124,0.0333,0.0899,-0.1637,,no
1.486,-0.0758,0.4684,0.9044,0.1677,0.1069,-0.124,0.0333,0.0899,-0.1637,,no
1.498,-0.0758,0.4684,0.9044,0.1677,0.1069,-0.124,0.0333,0.0899,-0.1637,,no
1.506,-0.07,0.4306,0.9475,0.1677,0.1069,-0.124,0.0333,0.0899,-0.1637,,no
1.526,0.005,0.3614,0.8999,0.1677,0.1069,-0.124,0.0333,0.0899,-0.1637,,no
1.546,0.005,0.3614,0.8999,-0.1604,-0.2483,0.2612,0.0333,0.0899,-0.1637,,no
1.547,0.0048,0.3999,0.8559,-0.1604,-0.2483,0.2612,0.0333,0.0899,-0.1637,,no
1.547,0.0048,0.3999,0.8559,-0.1604,-0.2483,0.2612,0.1941,0.0722,-0.0303,,no
1.55,0.0048,0.3999,0.8559,-0.1604,-0.2483,0.2612,0.1941,0.0722,-0.0303,,no
1.565,-0.0215,0.4782,0.8522,-0.1604,-0.2483,0.2612,0.1941,0.0722,-0.0303,,no
1.585,-0.0308,0.4502,0.8836,-0.1604,-0.2483,0.2612,0.1941,0.0722,-0.0303,,no
1.605,0.0057,0.4072,0.8677,-0.1604,-0.2483,0.2612,0.1941,0.0722,-0.0303,,no
1.625,-0.0129,0.4301,0.873,-0.1604,-0.2483,0.2612,0.1941,0.0722,-0.0303,,no
1.645,-0.0246,0.4253,0.8572,-0.1604,-0.2483,0.2612,0.1941,0.0722,-0.0303,,no
1.661,-0.0246,0.4253,0.8572,-0.1604,-0.2483,0.2612,0.1941,0.0722,-0.0303,,no
1.665,-0.0353,0.4215,0.8495,-0.1604,-0.2483,0.2612,0.1941,0.0722,-0.0303,,no
1.685,-0.0239,0.4205,0.8616,-0.1604,-0.2483,0.2612,0.1941,0.0722,-0.0303,,no
1.705,-0.013,0.4099,0.9004,-0.1604,-0.2483,0.2612,0.1941,0.0722,-0.0303,,no
1.724,-0.0244,0.4019,0.9282,-0.1604,-0.2483,0.2612,0.1941,0.0722,-0.0303,,no
1.744,-0.0244,0.4019,0.9282,0.0188,0.2252,-0.1454,0.1941,0.0722,-0.0303,,no
1.745,-0.0399,0.4006,0.9401,0.0188,0.2252,-0.1454,0.1941,0.0722,-0.0303,,no
1.745,-0.0399,0.4006,0.9401,0.0188,0.2252,-0.1454,-0.0006,0.007,-0.015,,no
1.752,-0.0399,0.4006,0.9401,0.0188,0.2252,-0.1454,-0.0006,0.007,-0.015,,no
1.764,-0.0466,0.4023,0.9285,0.0188,0.2252,-0.1454,-0.0006,0.007,-0.015,,no
1.784,-0.0414,0.3988,0.9026,0.0188,0.2252,-0.1454,-0.0006,0.007,-0.015,,no
1.804,-0.0362,0.4103,0.8929,0.0188,0.2252,-0.1454,-0.0006,0.007,-0.015,,no
1.824,-0.0189,0.4061,0.9041,0.0188,0.2252,-0.1454,-0.0006,0.007,-0.015,,no
1.844,-0.0395,0.4031,0.9095,0.0188,0.2252,-0.1454,-0.0006,0.007,-0.015,,no
1.862,-0.0395,0.4031,0.9095,0.0188,0.2252,-0.1454,-0.0006,0.007,-0.015,,no
1.863,-0.0413,0.4099,0.8994,0.0188,0.2252,-0.1454,-0.0006,0.007,-0.015,,no
1.885,-0.0049,0.4159,0.9043,0.0188,0.2252,-0.1454,-0.0006,0.007,-0.015,,no
1.903,0.0129,0.4164,0.9142,0.0188,0.2252,-0.1454,-0.0006,0.007,-0.015,,no
1.923,-0.0104,0.4174,0.8968,0.0188,0.2252,-0.1454,-0.0006,0.007,-0.015,,no
1.943,-0.0104,0.4174,0.8968,-0.0501,0.0506,0.0811,-0.0006,0.007,-0.015,,no
1.944,-0.0279,0.4181,0.8852,-0.0501,0.0506,0.0811,-0.0006,0.007,-0.015,,no
1.944,-0.0279,0.4181,0.8852,-0.0501,0.0506,0.0811,0.0156,-0.0179,0.0093,,no
1.953,-0.0279,0.4181,0.8852,-0.0501,0.0506,0.0811,0.0156,-0.0179,0.0093,,no
1.963,-0.0314,0.4147,0.8989,-0.0501,0.0506,0.0811,0.0156,-0.0179,0.0093,,no
1.985,-0.0118,0.3911,0.96,-0.0501,0.0506,0.0811,0.0156,-0.0179,0.0093,,no
2.003,0.0761,0.3424,1.0202,-0.0501,0.0506,0.0811,0.0156,-0.0179,0.0093,,no
2.024,-0.0156,0.3163,0.9602,-0.0501,0.0506,0.0811,0.0156,-0.0179,0.0093,,no
2.042,-0.097,0.3633,0.9302,-0.0501,0.0506,0.0811,0.0156,-0.0179,0.0093,,no
2.063,-0.1104,0.4122,0.9347,-0.0501,0.0506,0.0811,0.0156,-0.0179,0.0093,,no
2.064,-0.1104,0.4122,0.9347,-0.0501,0.0506,0.0811,0.0156,-0.0179,0.0093,,no
2.082,-0.2136,0.289,0.8767,-0.0501,0.0506,0.0811,0.0156,-0.0179,0.0093,,no
2.102,-0.1359,0.3834,0.8397,-0.0501,0.0506,0.0811,0.0156,-0.0179,0.0093,,no
2.122,-0.1838,0.4201,0.8265,-0.0501,0.0506,0.0811,0.0156,-0.0179,0.0093,,no
2.142,-0.1838,0.4201,0.8265,-0.1096,0.0625,0.0566,0.0156,-0.0179,0.0093,,no
2.143,-0.2003,0.3851,0.9039,-0.1096,0.0625,0.0566,0.0156,-0.0179,0.0093,,no
2.144,-0.2003,0.3851,0.9039,-0.1096,0.0625,0.0566,-0.2239,0.3603,0.0573,,no
2.154,-0.2003,0.3851,0.9039,-0.1096,0.0625,0.0566,-0.2239,0.3603,0.0573,,no
2.161,-0.2183,0.3515,0.9258,-0.1096,0.0625,0.0566,-0.2239,0.3603,0.0573,,no
2.182,-0.2371,0.362,0.9691,-0.1096,0.0625,0.0566,-0.2239,0.3603,0.0573,,no
2.201,-0.1778,0.3499,0.9,-0.1096,0.0625,0.0566,-0.2239,0.3603,0.0573,,no
2.221,-0.0928,0.3491,0.866,-0.1096,0.0625,0.0566,-0.2239,0.3603,0.0573,,no
2.241,-0.0292,0.3334,0.9784,-0.1096,0.0625,0.0566,-0.2239,0.3603,0.0573,,no
2.261,-0.0505,0.3647,0.9595,-0.1096,0.0625,0.0566,-0.2239,0.3603,0.0573,,no
2.265,-0.0505,0.3647,0.9595,-0.1096,0.0625,0.0566,-0.2239,0.3603,0.0573,,no
2.281,-0.021,0.3614,0.9419,-0.1096,0.0625,0.0566,-0.2239,0.3603,0.0573,,no
2.301,0.0082,0.3375,0.9694,-0.1096,0.0625,0.0566,-0.2239,0.3603,0.0573,,no
2.321,-0.01,0.2818,0.8814,-0.1096,0.0625,0.0566,-0.2239,0.3603,0.0573,,no
2.341,-0.0251,0.324,0.7555,-0.1096,0.0625,0.0566,-0.2239,0.3603,0.0573,,no
2.342,-0.0251,0.324,0.7555,-0.3646,-0.1658,0.0053,-0.2239,0.3603,0.0573,,no
2.342,-0.0251,0.324,0.7555,-0.3646,-0.1658,0.0053,-0.0639,-0.0337,0.4039,,no
2.356,-0.0251,0.324,0.7555,-0.3646,-0.1658,0.0053,-0.0639,-0.0337,0.4039,,no
2.36,-0.0138,0.3538,0.6892,-0.3646,-0.1658,0.0053,-0.0639,-0.0337,0.4039,,no
2.381,0.0902,0.3513,0.721,-0.3646,-0.1658,0.0053,-0.0639,-0.0337,0.4039,,no
2.4,0.1601,0.3325,0.7807,-0.3646,-0.1658,0.0053,-0.0639,-0.0337,0.4039,,no
2.42,0.1389,0.3082,0.8499,-0.3646,-0.1658,0.0053,-0.0639,-0.0337,0.4039,,no
2.44,0.0708,0.2967,0.8696,-0.3646,-0.1658,0.0053,-0.0639,-0.0337,0.4039,,no
2.46,0.0668,0.2876,0.8421,-0.3646,-0.1658,0.0053,-0.0639,-0.0337,0.4039,,no
2.466,0.0668,0.2876,0.8421,-0.3646,-0.1658,0.0053,-0.0639,-0.0337,0.4039,,no
2.48,0.0886,0.3112,0.7908,-0.3646,-0.1658,0.0053,-0.0639,-0.0337,0.4039,,no
2.5,0.1614,0.2726,0.7408,-0.3646,-0.1658,0.0053,-0.0639,-0.0337,0.4039,,no
2.519,0.209,0.2439,0.7361,-0.3646,-0.1658,0.0053,-0.0639,-0.0337,0.4039,,no
2.54,0.116,0.2817,0.8895,-0.3646,-0.1658,0.0053,-0.0639,-0.0337,0.4039,,no
2.54,0.116,0.2817,0.8895,-0.3646,-0.1658,0.0053,-0.059,-0.2648,0.2837,,no
2.54,0.116,0.2817,0.8895,0.8256,-0.4176,-1.1915,-0.059,-0.2648,0.2837,,no
2.558,0.116,0.2817,0.8895,0.8256,-0.4176,-1.1915,-0.059,-0.2648,0.2837,,no
2.56,0.0099,0.2773,0.9925,0.8256,-0.4176,-1.1915,-0.059,-0.2648,0.2837,,no
2.58,-0.0074,0.2895,0.9526,0.8256,-0.4176,-1.1915,-0.059,-0.2648,0.2837,,no
2.599,0.0414,0.3187,0.8736,0.8256,-0.4176,-1.1915,-0.059,-0.2648,0.2837,,no
2.619,0.0291,0.3393,0.8807,0.8256,-0.4176,-1.1915,-0.059,-0.2648,0.2837,,no
2.639,-0.0062,0.3377,0.8583,0.8256,-0.4176,-1.1915,-0.059,-0.2648,0.2837,,no
2.659,0.0526,0.3371,0.8075,0.8256,-0.4176,-1.1915,-0.059,-0.2648,0.2837,,no
2.68,0.1054,0.3242,0.8688,0.8256,-0.4176,-1.1915,-0.059,-0.2648,0.2837,,no
2.698,0.1317,0.3317,0.8721,0.8256,-0.4176,-1.1915,-0.059,-0.2648,0.2837,,no
2.718,0.1395,0.387,0.8851,0.8256,-0.4176,-1.1915,-0.059,-0.2648,0.2837,,no
2.738,0.1197,0.3595,0.8034,0.8256,-0.4176,-1.1915,-0.059,-0.2648,0.2837,,no
2.739,0.1197,0.3595,0.8034,0.8256,-0.4176,-1.1915,-0.301,-0.0121,-0.257,,no
2.739,0.1197,0.3595,0.8034,0.474,0.351,-0.4848,-0.301,-0.0121,-0.257,,no
2.758,0.0744,0.21,0.7738,0.474,0.351,-0.4848,-0.301,-0.0121,-0.257,,no
2.758,0.0744,0.21,0.7738,0.474,0.351,-0.4848,-0.301,-0.0121,-0.257,,no
2.778,-0.117,0.1881,0.9006,0.474,0.351,-0.4848,-0.301,-0.0121,-0.257,,no
2.798,0.1354,0.2616,1.0766,0.474,0.351,-0.4848,-0.301,-0.0121,-0.257,,no
2.818,0.4425,0.1376,1.3661,0.474,0.351,-0.4848,-0.301,-0.0121,-0.257,,no
2.838,0.2412,0.1876,1.2431,0.474,0.351,-0.4848,-0.301,-0.0121,-0.257,,no
2.857,0.0027,0.1626,1.0967,0.474,0.351,-0.4848,-0.301,-0.0121,-0.257,,no
2.869,0.0027,0.1626,1.0967,0.474,0.351,-0.4848,-0.301,-0.0121,-0.257,,no
2.877,-0.0604,0.1755,1.0925,0.474,0.351,-0.4848,-0.301,-0.0121,-0.257,,no
2.897,0.049,0.2284,1.0664,0.474,0.351,-0.4848,-0.301,-0.0121,-0.257,,no
2.917,0.1827,0.1716,1.0487,0.474,0.351,-0.4848,-0.301,-0.0121,-0.257,,no
2.937,0.0109,0.2859,0.7108,0.474,0.351,-0.4848,-0.301,-0.0121,-0.257,,no
2.937,0.0109,0.2859,0.7108,0.474,0.351,-0.4848,-0.308,-1.0388,-0.6196,,no
2.938,0.0109,0.2859,0.7108,-0.7143,-0.4376,1.0335,-0.308,-1.0388,-0.6196,,no
2.957,0.0508,0.3571,0.5961,-0.7143,-0.4376,1.0335,-0.308,-1.0388,-0.6196,,no
2.964,0.0508,0.3571,0.5961,-0.7143,-0.4376,1.0335,-0.308,-1.0388,-0.6196,,no
2.977,0.1246,0.1976,1.2393,-0.7143,-0.4376,1.0335,-0.308,-1.0388,-0.6196,,no
2.996,0.1309,0.1819,1.4042,-0.7143,-0.4376,1.0335,-0.308,-1.0388,-0.6196,,no
3.017,0.1431,0.1776,1.2816,-0.7143,-0.4376,1.0335,-0.308,-1.0388,-0.6196,,no
3.036,0.1065,0.1626,1.0268,-0.7143,-0.4376,1.0335,-0.308,-1.0388,-0.6196,,no
3.056,0.0743,0.1314,0.9233,-0.7143,-0.4376,1.0335,-0.308,-1.0388,-0.6196,,no
3.076,0.0436,0.1044,0.9299,-0.7143,-0.4376,1.0335,-0.308,-1.0388,-0.6196,,no
3.096,0.0598,0.0762,1.1114,-0.7143,-0.4376,1.0335,-0.308,-1.0388,-0.6196,,no
3.108,0.0598,0.0762,1.1114,-0.7143,-0.4376,1.0335,-0.308,-1.0388,-0.6196,,no
3.116,0.0544,0.0822,1.2575,-0.7143,-0.4376,1.0335,-0.308,-1.0388,-0.6196,,no
3.136,0.0661,0.0839,1.2308,-0.7143,-0.4376,1.0335,-0.308,-1.0388,-0.6196,,no
3.137,0.0661,0.0839,1.2308,-0.7143,-0.4376,1.0335,-0.5795,-0.1587,-0.692,,no
3.137,0.0661,0.0839,1.2308,-0.7858,-0.0649,1.3981,-0.5795,-0.1587,-0.692,,no
3.156,0.0693,0.1563,1.0774,-0.7858,-0.0649,1.3981,-0.5795,-0.1587,-0.692,,no
3.162,0.0693,0.1563,1.0774,-0.7858,-0.0649,1.3981,-0.5795,-0.1587,-0.692,,no
3.176,0.1153,0.1914,0.9162,-0.7858,-0.0649,1.3981,-0.5795,-0.1587,-0.692,,no
3.196,0.2006,0.1755,0.809,-0.7858,-0.0649,1.3981,-0.5795,-0.1587,-0.692,,no
3.216,0.2074,0.2132,0.7794,-0.7858,-0.0649,1.3981,-0.5795,-0.1587,-0.692,,no
3.236,0.1311,0.2791,0.8109,-0.7858,-0.0649,1.3981,-0.5795,-0.1587,-0.692,,no
3.255,0.1064,0.3113,0.7971,-0.7858,-0.0649,1.3981,-0.5795,-0.1587,-0.692,,no
3.273,0.1064,0.3113,0.7971,-0.7858,-0.0649,1.3981,-0.5795,-0.1587,-0.692,,no
3.274,0.1199,0.3597,0.8309,-0.7858,-0.0649,1.3981,-0.5795,-0.1587,-0.692,,no
3.295,0.1816,0.3971,0.8703,-0.7858,-0.0649,1.3981,-0.5795,-0.1587,-0.692,,no
3.316,0.2386,0.3756,0.9451,-0.7858,-0.0649,1.3981,-0.5795,-0.1587,-0.692,,no
3.335,0.2386,0.3756,0.9451,-0.2151,0.1525,-0.4589,-0.5795,-0.1587,-0.692,,no
3.337,0.1726,0.3697,0.9868,-0.2151,0.1525,-0.4589,-0.5795,-0.1587,-0.692,,no
3.338,0.1726,0.3697,0.9868,-0.2151,0.1525,-0.4589,0.5557,-0.0569,-0.0045,,no
3.354,0.0894,0.3586,0.941,-0.2151,0.1525,-0.4589,0.5557,-0.0569,-0.0045,,no
3.363,0.0894,0.3586,0.941,-0.2151,0.1525,-0.4589,0.5557,-0.0569,-0.0045,,no
3.374,0.102,0.352,0.9131,-0.2151,0.1525,-0.4589,0.5557,-0.0569,-0.0045,,no
3.394,0.161,0.3824,0.9612,-0.2151,0.1525,-0.4589,0.5557,-0.0569,-0.0045,,no
3.414,0.1704,0.386,0.9877,-0.2151,0.1525,-0.4589,0.5557,-0.0569,-0.0045,,no
3.434,0.2035,0.3156,0.9495,-0.2151,0.1525,-0.4589,0.5557,-0.0569,-0.0045,,no
3.454,0.2667,0.268,0.7257,-0.2151,0.1525,-0.4589,0.5557,-0.0569,-0.0045,,no
3.473,0.1625,0.3426,0.8152,-0.2151,0.1525,-0.4589,0.5557,-0.0569,-0.0045,,no
3.474,0.1625,0.3426,0.8152,-0.2151,0.1525,-0.4589,0.5557,-0.0569,-0.0045,,no
3.497,0.1361,0.3377,0.9983,-0.2151,0.1525,-0.4589,0.5557,-0.0569,-0.0045,,no
3.514,0.1615,0.309,1.0791,-0.2151,0.1525,-0.4589,0.5557,-0.0569,-0.0045,,no
3.534,0.1624,0.2981,1.0397,-0.2151,0.1525,-0.4589,0.5557,-0.0569,-0.0045,,no
3.534,0.1624,0.2981,1.0397,-0.2151,0.1525,-0.4589,0.0966,0.1658,0.209,,no
3.534,0.1624,0.2981,1.0397,0.039,0.5293,0.1089,0.0966,0.1658,0.209,,no
3.554,0.1758,0.2985,0.9843,0.039,0.5293,0.1089,0.0966,0.1658,0.209,,no
3.565,0.1758,0.2985,0.9843,0.039,0.5293,0.1089,0.0966,0.1658,0.209,,no
3.574,0.2056,0.2925,0.9976,0.039,0.5293,0.1089,0.0966,0.1658,0.209,,no
3.593,0.2028,0.2736,0.9256,0.039,0.5293,0.1089,0.0966,0.1658,0.209,,no
3.613,0.1835,0.2744,0.8779,0.039,0.5293,0.1089,0.0966,0.1658,0.209,,no
3.633,0.1731,0.2737,0.9893,0.039,0.5293,0.1089,0.0966,0.1658,0.209,,no
3.653,0.1647,0.2621,0.9606,0.039,0.5293,0.1089,0.0966,0.1658,0.209,,no
3.673,0.1197,0.2592,0.9364,0.039,0.5293,0.1089,0.0966,0.1658,0.209,,no
3.676,0.1197,0.2592,0.9364,0.039,0.5293,0.1089,0.0966,0.1658,0.209,,no
3.693,0.1172,0.2547,0.9473,0.039,0.5293,0.1089,0.0966,0.1658,0.209,,no
3.712,0.1266,0.2633,0.8886,0.039,0.5293,0.1089,0.0966,0.1658,0.209,,no
3.733,0.1356,0.2764,0.8841,0.039,0.5293,0.1089,0.0966,0.1658,0.209,,no
3.733,0.1356,0.2764,0.8841,0.039,0.5293,0.1089,0.0307,0.0102,-0.3524,,no
3.733,0.1356,0.2764,0.8841,0.2341,-0.2227,0.0989,0.0307,0.0102,-0.3524,,no
3.752,0.1527,0.2755,0.8847,0.2341,-0.2227,0.0989,0.0307,0.0102,-0.3524,,no
3.766,0.1527,0.2755,0.8847,0.2341,-0.2227,0.0989,0.0307,0.0102,-0.3524,,no
3.772,0.1484,0.2768,0.8376,0.2341,-0.2227,0.0989,0.0307,0.0102,-0.3524,,no
3.792,0.1847,0.2996,0.8552,0.2341,-0.2227,0.0989,0.0307,0.0102,-0.3524,,no
3.812,0.1647,0.3117,0.8842,0.2341,-0.2227,0.0989,0.0307,0.0102,-0.3524,,no
3.831,0.099,0.3298,0.8429,0.2341,-0.2227,0.0989,0.0307,0.0102,-0.3524,,no
3.852,0.0869,0.3297,0.7469,0.2341,-0.2227,0.0989,0.0307,0.0102,-0.3524,,no
3.871,0.0973,0.303,0.8812,0.2341,-0.2227,0.0989,0.0307,0.0102,-0.3524,,no
3.877,0.0973,0.303,0.8812,0.2341,-0.2227,0.0989,0.0307,0.0102,-0.3524,,no
3.891,0.1572,0.2626,0.9446,0.2341,-0.2227,0.0989,0.0307,0.0102,-0.3524,,no
3.911,0.1096,0.2321,0.8695,0.2341,-0.2227,0.0989,0.0307,0.0102,-0.3524,,no
3.931,0.0555,0.217,0.8879,0.2341,-0.2227,0.0989,0.0307,0.0102,-0.3524,,no
3.932,0.0555,0.217,0.8879,0.2341,-0.2227,0.0989,-0.3745,-0.4408,0.0758,,no
3.932,0.0555,0.217,0.8879,-0.8951,0.5658,-0.6463,-0.3745,-0.4408,0.0758,,no
3.951,0.1327,0.1839,1.0411,-0.8951,0.5658,-0.6463,-0.3745,-0.4408,0.0758,,no
3.967,0.1327,0.1839,1.0411,-0.8951,0.5658,-0.6463,-0.3745,-0.4408,0.0758,,no
3.971,0.2309,0.1551,1.1072,-0.8951,0.5658,-0.6463,-0.3745,-0.4408,0.0758,,no
3.99,0.2181,0.1376,0.9813,-0.8951,0.5658,-0.6463,-0.3745,-0.4408,0.0758,,no
4.01,0.1163,0.0877,0.8173,-0.8951,0.5658,-0.6463,-0.3745,-0.4408,0.0758,,no
4.03,0.1017,0.0821,0.8312,-0.8951,0.5658,-0.6463,-0.3745,-0.4408,0.0758,,no
4.051,0.1204,0.0653,0.8483,-0.8951,0.5658,-0.6463,-0.3745,-0.4408,0.0758,,no
4.07,0.0664,0.0287,0.8323,-0.8951,0.5658,-0.6463,-0.3745,-0.4408,0.0758,,no
4.078,0.0664,0.0287,0.8323,-0.8951,0.5658,-0.6463,-0.3745,-0.4408,0.0758,,no
4.09,0.1366,0.0198,0.9502,-0.8951,0.5658,-0.6463,-0.3745,-0.4408,0.0758,,no
4.11,0.1785,0.0267,1.0759,-0.8951,0.5658,-0.6463,-0.3745,-0.4408,0.0758,,no
4.13,0.1405,0.0353,1.1841,-0.8951,0.5658,-0.6463,-0.3745,-0.4408,0.0758,,no
4.131,0.1405,0.0353,1.1841,-0.8951,0.5658,-0.6463,-0.6172,0.6965,0.6981,,no
4.131,0.1405,0.0353,1.1841,0.3598,-0.0315,-0.0414,-0.6172,0.6965,0.6981,,no
4.149,0.0185,0.0029,1.0546,0.3598,-0.0315,-0.0414,-0.6172,0.6965,0.6981,,no
4.169,0.0185,0.0029,1.0546,0.3598,-0.0315,-0.0414,-0.6172,0.6965,0.6981,,no
4.169,-0.0426,-0.037,0.8487,0.3598,-0.0315,-0.0414,-0.6172,0.6965,0.6981,,no
4.189,0.066,0.0124,0.7651,0.3598,-0.0315,-0.0414,-0.6172,0.6965,0.6981,,no
4.209,0.1511,0.1266,0.5538,0.3598,-0.0315,-0.0414,-0.6172,0.6965,0.6981,,no
4.229,0.1902,0.0487,0.3774,0.3598,-0.0315,-0.0414,-0.6172,0.6965,0.6981,,no
4.249,0.2664,-0.1834,0.5349,0.3598,-0.0315,-0.0414,-0.6172,0.6965,0.6981,,no
4.269,0.2633,-0.1819,1.2726,0.3598,-0.0315,-0.0414,-0.6172,0.6965,0.6981,,no
4.279,0.2633,-0.1819,1.2726,0.3598,-0.0315,-0.0414,-0.6172,0.6965,0.6981,,no
4.289,0.0557,-0.0044,1.6439,0.3598,-0.0315,-0.0414,-0.6172,0.6965,0.6981,,no
4.309,-0.0257,-0.1067,1.1162,0.3598,-0.0315,-0.0414,-0.6172,0.6965,0.6981,,no
4.329,0.044,-0.2103,0.7931,0.3598,-0.0315,-0.0414,-0.6172,0.6965,0.6981,,no
4.329,0.044,-0.2103,0.7931,0.3598,-0.0315,-0.0414,-0.9376,-0.5993,0.7022,,no
4.329,0.044,-0.2103,0.7931,-1.1391,0.5765,-0.4891,-0.9376,-0.5993,0.7022,,no
4.348,0.0848,-0.1923,0.9639,-1.1391,0.5765,-0.4891,-0.9376,-0.5993,0.7022,,no
4.369,0.1403,-0.1939,1.14,-1.1391,0.5765,-0.4891,-0.9376,-0.5993,0.7022,,no
4.369,0.1403,-0.1939,1.14,-1.1391,0.5765,-0.4891,-0.9376,-0.5993,0.7022,,no
4.388,0.2613,-0.1962,1.2555,-1.1391,0.5765,-0.4891,-0.9376,-0.5993,0.7022,,no
4.408,0.309,-0.2024,1.2627,-1.1391,0.5765,-0.4891,-0.9376,-0.5993,0.7022,,no
4.428,0.2577,-0.2111,1.169,-1.1391,0.5765,-0.4891,-0.9376,-0.5993,0.7022,,no
4.448,0.1616,-0.2148,1.0185,-1.1391,0.5765,-0.4891,-0.9376,-0.5993,0.7022,,no
4.468,0.1287,-0.2132,0.9495,-1.1391,0.5765,-0.4891,-0.9376,-0.5993,0.7022,,no
4.481,0.1287,-0.2132,0.9495,-1.1391,0.5765,-0.4891,-0.9376,-0.5993,0.7022,,no
4.488,0.1191,-0.2105,1.008,-1.1391,0.5765,-0.4891,-0.9376,-0.5993,0.7022,,no
4.508,0.1053,-0.1747,1.0746,-1.1391,0.5765,-0.4891,-0.9376,-0.5993,0.7022,,no
4.528,0.1053,-0.1747,1.0746,1.1429,-0.2169,1.2382,-0.9376,-0.5993,0.7022,,no
4.528,0.1429,-0.1484,1.088,1.1429,-0.2169,1.2382,-0.9376,-0.5993,0.7022,,no
4.528,0.1429,-0.1484,1.088,1.1429,-0.2169,1.2382,-0.1276,0.6737,1.2331,,no
4.547,0.2188,-0.1392,1.0372,1.1429,-0.2169,1.2382,-0.1276,0.6737,1.2331,,no
4.567,0.289,-0.113,0.9596,1.1429,-0.2169,1.2382,-0.1276,0.6737,1.2331,,no
4.571,0.289,-0.113,0.9596,1.1429,-0.2169,1.2382,-0.1276,0.6737,1.2331,,no
4.587,0.4001,-0.0848,0.8855,1.1429,-0.2169,1.2382,-0.1276,0.6737,1.2331,,no
4.607,0.4769,-0.1707,1.2291,1.1429,-0.2169,1.2382,-0.1276,0.6737,1.2331,,no
4.627,0.1524,-0.1054,1.4023,1.1429,-0.2169,1.2382,-0.1276,0.6737,1.2331,,no
4.647,0.035,-0.0936,1.1976,1.1429,-0.2169,1.2382,-0.1276,0.6737,1.2331,,no
4.666,0.1272,-0.0698,1.1651,1.1429,-0.2169,1.2382,-0.1276,0.6737,1.2331,,no
4.687,0.1494,-0.0208,1.0811,1.1429,-0.2169,1.2382,-0.1276,0.6737,1.2331,,no
4.707,0.1925,-0.1422,0.882,1.1429,-0.2169,1.2382,-0.1276,0.6737,1.2331,,no
4.718,0.1925,-0.1422,0.882,1.1429,-0.2169,1.2382,-0.1276,0.6737,1.2331,,no
4.727,0.2006,-0.1697,0.9882,1.1429,-0.2169,1.2382,-0.1276,0.6737,1.2331,,no
4.727,0.2006,-0.1697,0.9882,1.1429,-0.2169,1.2382,0.7317,-0.3153,0.0027,,no
4.727,0.2006,-0.1697,0.9882,1.0382,-0.7471,0.9882,0.7317,-0.3153,0.0027,,no
4.746,0.1034,0.0052,1.1278,1.0382,-0.7471,0.9882,0.7317,-0.3153,0.0027,,no
4.767,0.0897,0.0062,0.9948,1.0382,-0.7471,0.9882,0.7317,-0.3153,0.0027,,no
4.773,0.0897,0.0062,0.9948,1.0382,-0.7471,0.9882,0.7317,-0.3153,0.0027,,no
4.786,0.1102,0.0308,0.7774,1.0382,-0.7471,0.9882,0.7317,-0.3153,0.0027,,no
4.806,0.1422,0.1006,0.7565,1.0382,-0.7471,0.9882,0.7317,-0.3153,0.0027,,no
4.826,0.1375,0.1183,0.7838,1.0382,-0.7471,0.9882,0.7317,-0.3153,0.0027,,no
4.846,0.1743,0.0989,0.9254,1.0382,-0.7471,0.9882,0.7317,-0.3153,0.0027,,no
4.865,0.2463,0.1081,1.1194,1.0382,-0.7471,0.9882,0.7317,-0.3153,0.0027,,no
4.884,0.2463,0.1081,1.1194,1.0382,-0.7471,0.9882,0.7317,-0.3153,0.0027,,no
4.885,0.2988,0.1215,1.0682,1.0382,-0.7471,0.9882,0.7317,-0.3153,0.0027,,no
4.905,0.2104,0.0973,0.7786,1.0382,-0.7471,0.9882,0.7317,-0.3153,0.0027,,no
4.925,0.2806,0.0547,0.7794,1.0382,-0.7471,0.9882,0.7317,-0.3153,0.0027,,no
4.926,0.2806,0.0547,0.7794,1.0382,-0.7471,0.9882,0.8056,-1.1051,-1.0178,,no
4.926,0.2806,0.0547,0.7794,-1.2519,-0.8451,-0.1193,0.8056,-1.1051,-1.0178,,no
4.945,0.3485,0.1171,0.9092,-1.2519,-0.8451,-0.1193,0.8056,-1.1051,-1.0178,,no
4.965,0.274,0.1304,0.877,-1.2519,-0.8451,-0.1193,0.8056,-1.1051,-1.0178,,no
4.974,0.274,0.1304,0.877,-1.2519,-0.8451,-0.1193,0.8056,-1.1051,-1.0178,,no
4.985,0.2453,0.1271,0.8913,-1.2519,-0.8451,-0.1193,0.8056,-1.1051,-1.0178,,no
5.005,0.2903,0.1227,0.9208,-1.2519,-0.8451,-0.1193,0.8056,-1.1051,-1.0178,,no
5.024,0.226,0.0847,0.8741,-1.2519,-0.8451,-0.1193,0.8056,-1.1051,-1.0178,,no
5.044,0.2629,0.1026,0.782,-1.2519,-0.8451,-0.1193,0.8056,-1.1051,-1.0178,,no
5.064,0.2867,0.1257,0.8423,-1.2519,-0.8451,-0.1193,0.8056,-1.1051,-1.0178,,no
5.085,0.2357,0.1271,0.8124,-1.2519,-0.8451,-0.1193,0.8056,-1.1051,-1.0178,,no
5.085,0.2357,0.1271,0.8124,-1.2519,-0.8451,-0.1193,0.8056,-1.1051,-1.0178,,no
5.104,0.2184,0.129,0.9011,-1.2519,-0.8451,-0.1193,0.8056,-1.1051,-1.0178,,no
5.124,0.179,0.0993,1.0458,-1.2519,-0.8451,-0.1193,0.8056,-1.1051,-1.0178,,no
5.125,0.179,0.0993,1.0458,0.3504,0.0109,-0.6421,0.8056,-1.1051,-1.0178,,no
5.125,0.179,0.0993,1.0458,0.3504,0.0109,-0.6421,-0.3189,0.4276,-0.2376,,no
5.144,0.2109,0.0894,1.071,0.3504,0.0109,-0.6421,-0.3189,0.4276,-0.2376,,no
5.164,0.2707,0.0965,0.9767,0.3504,0.0109,-0.6421,-0.3189,0.4276,-0.2376,,no
5.176,0.2707,0.0965,0.9767,0.3504,0.0109,-0.6421,-0.3189,0.4276,-0.2376,,no
5.183,0.243,0.0708,0.9309,0.3504,0.0109,-0.6421,-0.3189,0.4276,-0.2376,,no
5.204,0.2508,0.0601,1.0181,0.3504,0.0109,-0.6421,-0.3189,0.4276,-0.2376,,no
5.223,0.2812,0.0694,1.0204,0.3504,0.0109,-0.6421,-0.3189,0.4276,-0.2376,,no
5.243,0.3362,0.0679,1.0982,0.3504,0.0109,-0.6421,-0.3189,0.4276,-0.2376,,no
5.263,0.4547,0.0507,1.2082,0.3504,0.0109,-0.6421,-0.3189,0.4276,-0.2376,,no
5.283,0.3935,0.0645,1.056,0.3504,0.0109,-0.6421,-0.3189,0.4276,-0.2376,,no
5.286,0.3935,0.0645,1.056,0.3504,0.0109,-0.6421,-0.3189,0.4276,-0.2376,,no
5.303,0.0089,0.1848,0.5658,0.3504,0.0109,-0.6421,-0.3189,0.4276,-0.2376,,no
5.323,0.0089,0.1848,0.5658,-0.0119,-0.2759,-0.0499,-0.3189,0.4276,-0.2376,,no
5.324,0.0035,0.1303,0.4457,-0.0119,-0.2759,-0.0499,-0.3189,0.4276,-0.2376,,no
5.324,0.0035,0.1303,0.4457,-0.0119,-0.2759,-0.0499,-0.0713,-0.1788,-0.3597,,no
5.343,0.2065,0.079,0.81,-0.0119,-0.2759,-0.0499,-0.0713,-0.1788,-0.3597,,no
5.363,0.2795,0.0683,1.0004,-0.0119,-0.2759,-0.0499,-0.0713,-0.1788,-0.3597,,no
5.377,0.2795,0.0683,1.0004,-0.0119,-0.2759,-0.0499,-0.0713,-0.1788,-0.3597,,no
5.382,0.1489,0.0921,0.9726,-0.0119,-0.2759,-0.0499,-0.0713,-0.1788,-0.3597,,no
5.402,-0.0013,0.0949,0.9832,-0.0119,-0.2759,-0.0499,-0.0713,-0.1788,-0.3597,,no
5.422,0.1004,0.0575,1.0462,-0.0119,-0.2759,-0.0499,-0.0713,-0.1788,-0.3597,,no
5.442,0.1792,0.0679,1.0201,-0.0119,-0.2759,-0.0499,-0.0713,-0.1788,-0.3597,,no
5.462,0.242,0.051,0.9127,-0.0119,-0.2759,-0.0499,-0.0713,-0.1788,-0.3597,,no
5.482,0.2487,0.031,0.8739,-0.0119,-0.2759,-0.0499,-0.0713,-0.1788,-0.3597,,no
5.488,0.2487,0.031,0.8739,-0.0119,-0.2759,-0.0499,-0.0713,-0.1788,-0.3597,,no
5.502,0.1768,0.0659,1,-0.0119,-0.2759,-0.0499,-0.0713,-0.1788,-0.3597,,no
5.523,0.2291,0.0099,1.1328,-0.0119,-0.2759,-0.0499,-0.0713,-0.1788,-0.3597,,no
5.523,0.2291,0.0099,1.1328,-0.0119,-0.2759,-0.0499,-0.4567,-0.1366,-0.1232,,no
5.524,0.2291,0.0099,1.1328,-0.827,0.2296,0.2874,-0.4567,-0.1366,-0.1232,,no
5.542,0.3145,0.0006,1.1464,-0.827,0.2296,0.2874,-0.4567,-0.1366,-0.1232,,no
5.561,0.3013,0.0299,1.034,-0.827,0.2296,0.2874,-0.4567,-0.1366,-0.1232,,no
5.578,0.3013,0.0299,1.034,-0.827,0.2296,0.2874,-0.4567,-0.1366,-0.1232,,no
5.581,0.2987,0.0271,0.9971,-0.827,0.2296,0.2874,-0.4567,-0.1366,-0.1232,,no
5.601,0.2948,0.0433,1.0659,-0.827,0.2296,0.2874,-0.4567,-0.1366,-0.1232,,no
5.621,0.3262,0.0299,1.0234,-0.827,0.2296,0.2874,-0.4567,-0.1366,-0.1232,,no
5.64,0.32,0.053,0.9315,-0.827,0.2296,0.2874,-0.4567,-0.1366,-0.1232,,no
5.661,0.3329,0.0598,0.9052,-0.827,0.2296,0.2874,-0.4567,-0.1366,-0.1232,,no
5.68,0.3291,0.0592,0.9173,-0.827,0.2296,0.2874,-0.4567,-0.1366,-0.1232,,no
5.689,0.3291,0.0592,0.9173,-0.827,0.2296,0.2874,-0.4567,-0.1366,-0.1232,,no
5.7,0.3267,0.0614,0.9629,-0.827,0.2296,0.2874,-0.4567,-0.1366,-0.1232,,no
5.721,0.3267,0.0614,0.9629,0.4742,-0.1109,0.5123,-0.4567,-0.1366,-0.1232,,no
5.721,0.333,0.0562,1.0135,0.4742,-0.1109,0.5123,-0.4567,-0.1366,-0.1232,,no
5.722,0.333,0.0562,1.0135,0.4742,-0.1109,0.5123,0.1191,-0.0019,0.1263,,no
5.74,0.3405,0.0716,1.0433,0.4742,-0.1109,0.5123,0.1191,-0.0019,0.1263,,no
5.76,0.3419,0.0729,0.9904,0.4742,-0.1109,0.5123,0.1191,-0.0019,0.1263,,no
5.78,0.3273,0.0686,0.8957,0.4742,-0.1109,0.5123,0.1191,-0.0019,0.1263,,no
5.78,0.3273,0.0686,0.8957,0.4742,-0.1109,0.5123,0.1191,-0.0019,0.1263,,no
5.8,0.3119,0.1219,0.8715,0.4742,-0.1109,0.5123,0.1191,-0.0019,0.1263,,no
5.821,0.3499,0.1318,0.8986,0.4742,-0.1109,0.5123,0.1191,-0.0019,0.1263,,no
5.84,0.3865,0.1116,0.9363,0.4742,-0.1109,0.5123,0.1191,-0.0019,0.1263,,no
5.859,0.403,0.1009,0.9875,0.4742,-0.1109,0.5123,0.1191,-0.0019,0.1263,,no
5.88,0.371,0.132,0.9922,0.4742,-0.1109,0.5123,0.1191,-0.0019,0.1263,,no
5.891,0.371,0.132,0.9922,0.4742,-0.1109,0.5123,0.1191,-0.0019,0.1263,,no
5.899,0.3314,0.1811,0.9522,0.4742,-0.1109,0.5123,0.1191,-0.0019,0.1263,,no
5.919,0.3314,0.1811,0.9522,0.0432,-0.0517,0.3664,0.1191,-0.0019,0.1263,,no
5.92,0.3678,0.193,0.9702,0.0432,-0.0517,0.3664,0.1191,-0.0019,0.1263,,no
5.92,0.3678,0.193,0.9702,0.0432,-0.0517,0.3664,0.3224,-0.4451,-0.175,,no
5.94,0.3888,0.2035,1.0081,0.0432,-0.0517,0.3664,0.3224,-0.4451,-0.175,,no
5.959,0.3677,0.1898,0.9787,0.0432,-0.0517,0.3664,0.3224,-0.4451,-0.175,,no
5.979,0.3418,0.1682,0.9601,0.0432,-0.0517,0.3664,0.3224,-0.4451,-0.175,,no
5.982,0.3418,0.1682,0.9601,0.0432,-0.0517,0.3664,0.3224,-0.4451,-0.175,,no
5.999,0.3792,0.1503,1.0498,0.0432,-0.0517,0.3664,0.3224,-0.4451,-0.175,,no
6.018,0.381,0.1229,1.0764,0.0432,-0.0517,0.3664,0.3224,-0.4451,-0.175,,no
6.039,0.3223,0.1152,0.9674,0.0432,-0.0517,0.3664,0.3224,-0.4451,-0.175,,no
6.059,0.2718,0.1237,0.8922,0.0432,-0.0517,0.3664,0.3224,-0.4451,-0.175,,no
6.078,0.2693,0.1295,0.8837,0.0432,-0.0517,0.3664,0.3224,-0.4451,-0.175,,no
6.092,0.2693,0.1295,0.8837,0.0432,-0.0517,0.3664,0.3224,-0.4451,-0.175,,no
6.098,0.2867,0.1348,0.9095,0.0432,-0.0517,0.3664,0.3224,-0.4451,-0.175,,no
6.118,0.2867,0.1348,0.9095,0.6673,-0.7159,0.2809,0.3224,-0.4451,-0.175,,no
6.119,0.2785,0.1409,0.8503,0.6673,-0.7159,0.2809,0.3224,-0.4451,-0.175,,no
6.119,0.2785,0.1409,0.8503,0.6673,-0.7159,0.2809,0.424,0.4285,-0.3765,,no
6.137,0.1979,0.151,0.6998,0.6673,-0.7159,0.2809,0.424,0.4285,-0.3765,,no
6.157,0.1745,0.1927,0.7854,0.6673,-0.7159,0.2809,0.424,0.4285,-0.3765,,no
6.177,0.1604,0.2234,0.8956,0.6673,-0.7159,0.2809,0.424,0.4285,-0.3765,,no
6.183,0.1604,0.2234,0.8956,0.6673,-0.7159,0.2809,0.424,0.4285,-0.3765,,no
6.197,0.1417,0.2263,0.9183,0.6673,-0.7159,0.2809,0.424,0.4285,-0.3765,,no
6.217,0.1376,0.2438,0.8924,0.6673,-0.7159,0.2809,0.424,0.4285,-0.3765,,no
6.237,0.1494,0.2726,0.9028,0.6673,-0.7159,0.2809,0.424,0.4285,-0.3765,,no
6.257,0.1762,0.2716,0.9239,0.6673,-0.7159,0.2809,0.424,0.4285,-0.3765,,no
6.277,0.2041,0.267,0.9204,0.6673,-0.7159,0.2809,0.424,0.4285,-0.3765,,no
6.299,0.1972,0.2906,0.9065,0.6673,-0.7159,0.2809,0.424,0.4285,-0.3765,,no
6.317,0.1546,0.3667,0.8249,0.6673,-0.7159,0.2809,0.424,0.4285,-0.3765,,no
6.317,0.1546,0.3667,0.8249,0.6673,-0.7159,0.2809,0.4181,-0.0386,-0.3254,,no
6.317,0.1546,0.3667,0.8249,-0.7531,-0.5851,-0.3527,0.4181,-0.0386,-0.3254,,no
6.329,0.1546,0.3667,0.8249,-0.7531,-0.5851,-0.3527,0.4181,-0.0386,-0.3254,,no
6.337,0.1955,0.3404,0.7825,-0.7531,-0.5851,-0.3527,0.4181,-0.0386,-0.3254,,no
6.358,0.2611,0.2974,0.7734,-0.7531,-0.5851,-0.3527,0.4181,-0.0386,-0.3254,,no
6.377,0.2809,0.3409,0.7654,-0.7531,-0.5851,-0.3527,0.4181,-0.0386,-0.3254,,no
6.384,0.2809,0.3409,0.7654,-0.7531,-0.5851,-0.3527,0.4181,-0.0386,-0.3254,,no
6.397,0.2526,0.3651,0.7852,-0.7531,-0.5851,-0.3527,0.4181,-0.0386,-0.3254,,no
6.416,0.2805,0.3669,0.7699,-0.7531,-0.5851,-0.3527,0.4181,-0.0386,-0.3254,,no
6.437,0.2844,0.3868,0.8327,-0.7531,-0.5851,-0.3527,0.4181,-0.0386,-0.3254,,no
6.457,0.2514,0.3655,0.794,-0.7531,-0.5851,-0.3527,0.4181,-0.0386,-0.3254,,no
6.477,0.262,0.3524,0.7351,-0.7531,-0.5851,-0.3527,0.4181,-0.0386,-0.3254,,no
6.497,0.3352,0.3374,0.7912,-0.7531,-0.5851,-0.3527,0.4181,-0.0386,-0.3254,,no
6.497,0.3352,0.3374,0.7912,-0.7531,-0.5851,-0.3527,0.4181,-0.0386,-0.3254,,no
6.516,0.3362,0.3294,0.7838,-0.7531,-0.5851,-0.3527,0.4181,-0.0386,-0.3254,,no
6.517,0.3362,0.3294,0.7838,-0.7531,-0.5851,-0.3527,0.1366,-0.2906,-0.0275,,no
6.517,0.3362,0.3294,0.7838,-0.2041,0.1156,-0.9059,0.1366,-0.2906,-0.0275,,no
6.535,0.2893,0.3402,0.857,-0.2041,0.1156,-0.9059,0.1366,-0.2906,-0.0275,,no
6.556,0.2827,0.3192,0.9385,-0.2041,0.1156,-0.9059,0.1366,-0.2906,-0.0275,,no
6.576,0.2844,0.3005,0.9484,-0.2041,0.1156,-0.9059,0.1366,-0.2906,-0.0275,,no
6.586,0.2844,0.3005,0.9484,-0.2041,0.1156,-0.9059,0.1366,-0.2906,-0.0275,,no
6.596,0.297,0.298,0.9121,-0.2041,0.1156,-0.9059,0.1366,-0.2906,-0.0275,,no
6.615,0.282,0.3025,0.878,-0.2041,0.1156,-0.9059,0.1366,-0.2906,-0.0275,,no
6.635,0.2686,0.2977,0.8944,-0.2041,0.1156,-0.9059,0.1366,-0.2906,-0.0275,,no
6.655,0.2534,0.281,0.9369,-0.2041,0.1156,-0.9059,0.1366,-0.2906,-0.0275,,no
6.675,0.2546,0.2676,0.9579,-0.2041,0.1156,-0.9059,0.1366,-0.2906,-0.0275,,no
6.694,0.2619,0.2652,0.9442,-0.2041,0.1156,-0.9059,0.1366,-0.2906,-0.0275,,no
6.697,0.2619,0.2652,0.9442,-0.2041,0.1156,-0.9059,0.1366,-0.2906,-0.0275,,no
6.715,0.2619,0.2652,0.9442,0.1902,0.0381,0.1393,0.1366,-0.2906,-0.0275,,no
6.716,0.2596,0.2657,0.9137,0.1902,0.0381,0.1393,0.1366,-0.2906,-0.0275,,no
6.717,0.2596,0.2657,0.9137,0.1902,0.0381,0.1393,-0.2488,0.255,0.0515,,no
6.734,0.2436,0.2764,0.8914,0.1902,0.0381,0.1393,-0.2488,0.255,0.0515,,no
6.754,0.2458,0.2771,0.9216,0.1902,0.0381,0.1393,-0.2488,0.255,0.0515,,no
6.774,0.2559,0.2693,0.9413,0.1902,0.0381,0.1393,-0.2488,0.255,0.0515,,no
6.787,0.2559,0.2693,0.9413,0.1902,0.0381,0.1393,-0.2488,0.255,0.0515,,no
6.794,0.2436,0.2829,0.9192,0.1902,0.0381,0.1393,-0.2488,0.255,0.0515,,no
6.813,0.2183,0.2956,0.8775,0.1902,0.0381,0.1393,-0.2488,0.255,0.0515,,no
6.834,0.2117,0.3001,0.8853,0.1902,0.0381,0.1393,-0.2488,0.255,0.0515,,no
6.853,0.2171,0.2911,0.9441,0.1902,0.0381,0.1393,-0.2488,0.255,0.0515,,no
6.873,0.2524,0.2567,0.9675,0.1902,0.0381,0.1393,-0.2488,0.255,0.0515,,no
6.893,0.2627,0.2332,0.8885,0.1902,0.0381,0.1393,-0.2488,0.255,0.0515,,no
6.898,0.2627,0.2332,0.8885,0.1902,0.0381,0.1393,-0.2488,0.255,0.0515,,no
6.914,0.2627,0.2332,0.8885,-0.0955,-0.0261,0.12,-0.2488,0.255,0.0515,,no
6.914,0.1483,0.389,0.9684,-0.0955,-0.0261,0.12,-0.2488,0.255,0.0515,,no
6.914,0.1483,0.389,0.9684,-0.0955,-0.0261,0.12,-0.02,0.0522,-0.0761,,no
6.933,0.2481,0.2626,0.9849,-0.0955,-0.0261,0.12,-0.02,0.0522,-0.0761,,no
6.953,0.202,0.2952,0.9921,-0.0955,-0.0261,0.12,-0.02,0.0522,-0.0761,,no
6.973,0.1924,0.3101,0.9553,-0.0955,-0.0261,0.12,-0.02,0.0522,-0.0761,,no
6.989,0.1924,0.3101,0.9553,-0.0955,-0.0261,0.12,-0.02,0.0522,-0.0761,,no
6.993,0.2038,0.3068,0.9451,-0.0955,-0.0261,0.12,-0.02,0.0522,-0.0761,,no
7.016,0.1965,0.3253,0.9448,-0.0955,-0.0261,0.12,-0.02,0.0522,-0.0761,,no
7.032,0.1598,0.3441,0.8875,-0.0955,-0.0261,0.12,-0.02,0.0522,-0.0761,,no
7.052,0.1666,0.3407,0.8434,-0.0955,-0.0261,0.12,-0.02,0.0522,-0.0761,,no
7.072,0.1985,0.337,0.8868,-0.0955,-0.0261,0.12,-0.02,0.0522,-0.0761,,no
7.092,0.2164,0.3347,0.9245,-0.0955,-0.0261,0.12,-0.02,0.0522,-0.0761,,no
7.1,0.2164,0.3347,0.9245,-0.0955,-0.0261,0.12,-0.02,0.0522,-0.0761,,no
7.112,0.2164,0.3347,0.9245,-0.2593,-0.1359,0.2879,-0.02,0.0522,-0.0761,,no
7.113,0.221,0.3294,0.9068,-0.2593,-0.1359,0.2879,-0.02,0.0522,-0.0761,,no
7.113,0.221,0.3294,0.9068,-0.2593,-0.1359,0.2879,0.2344,0.0537,-0.0282,,no
7.132,0.2059,0.3309,0.8872,-0.2593,-0.1359,0.2879,0.2344,0.0537,-0.0282,,no
7.152,0.1662,0.3651,0.8629,-0.2593,-0.1359,0.2879,0.2344,0.0537,-0.0282,,no
7.172,0.1927,0.331,0.8136,-0.2593,-0.1359,0.2879,0.2344,0.0537,-0.0282,,no
7.19,0.1927,0.331,0.8136,-0.2593,-0.1359,0.2879,0.2344,0.0537,-0.0282,,no
7.191,0.1921,0.349,0.8239,-0.2593,-0.1359,0.2879,0.2344,0.0537,-0.0282,,no
7.211,0.2002,0.3441,0.8412,-0.2593,-0.1359,0.2879,0.2344,0.0537,-0.0282,,no
7.231,0.2316,0.3152,0.9005,-0.2593,-0.1359,0.2879,0.2344,0.0537,-0.0282,,no
7.251,0.2436,0.3179,0.9481,-0.2593,-0.1359,0.2879,0.2344,0.0537,-0.0282,,no
7.271,0.2623,0.3104,0.8857,-0.2593,-0.1359,0.2879,0.2344,0.0537,-0.0282,,no
7.291,0.2353,0.3537,0.8227,-0.2593,-0.1359,0.2879,0.2344,0.0537,-0.0282,,no
7.301,0.2353,0.3537,0.8227,-0.2593,-0.1359,0.2879,0.2344,0.0537,-0.0282,,no
7.314,0.2353,0.3537,0.8227,-0.1337,-0.1399,-0.2831,0.2344,0.0537,-0.0282,,no
7.314,0.2368,0.3513,0.803,-0.1337,-0.1399,-0.2831,0.2344,0.0537,-0.0282,,no
7.315,0.2368,0.3513,0.803,-0.1337,-0.1399,-0.2831,0.1181,-0.0096,0.0343,,no
7.333,0.2343,0.3305,0.85,-0.1337,-0.1399,-0.2831,0.1181,-0.0096,0.0343,,no
7.35,0.2354,0.3209,0.9094,-0.1337,-0.1399,-0.2831,0.1181,-0.0096,0.0343,,no
7.37,0.232,0.328,0.906,-0.1337,-0.1399,-0.2831,0.1181,-0.0096,0.0343,,no
7.39,0.2105,0.3487,0.8664,-0.1337,-0.1399,-0.2831,0.1181,-0.0096,0.0343,,no
7.39,0.2105,0.3487,0.8664,-0.1337,-0.1399,-0.2831,0.1181,-0.0096,0.0343,,no
7.41,0.2072,0.3452,0.8579,-0.1337,-0.1399,-0.2831,0.1181,-0.0096,0.0343,,no
7.43,0.1875,0.3481,0.8748,-0.1337,-0.1399,-0.2831,0.1181,-0.0096,0.0343,,no
7.45,0.1818,0.342,0.8873,-0.1337,-0.1399,-0.2831,0.1181,-0.0096,0.0343,,no
7.47,0.1903,0.3265,0.8963,-0.1337,-0.1399,-0.2831,0.1181,-0.0096,0.0343,,no
7.49,0.1541,0.3402,0.8999,-0.1337,-0.1399,-0.2831,0.1181,-0.0096,0.0343,,no
7.502,0.1541,0.3402,0.8999,-0.1337,-0.1399,-0.2831,0.1181,-0.0096,0.0343,,no
7.51,0.1541,0.3402,0.8999,-0.3605,-0.0694,-0.0521,0.1181,-0.0096,0.0343,,no
7.51,0.1393,0.3291,0.8891,-0.3605,-0.0694,-0.0521,0.1181,-0.0096,0.0343,,no
7.511,0.1393,0.3291,0.8891,-0.3605,-0.0694,-0.0521,-0.0583,-0.0535,-0.0544,,no
7.529,0.126,0.3305,0.9074,-0.3605,-0.0694,-0.0521,-0.0583,-0.0535,-0.0544,,no
7.549,0.1517,0.3177,0.9601,-0.3605,-0.0694,-0.0521,-0.0583,-0.0535,-0.0544,,no
7.569,0.1831,0.3183,0.968,-0.3605,-0.0694,-0.0521,-0.0583,-0.0535,-0.0544,,no
7.589,0.2216,0.335,0.8918,-0.3605,-0.0694,-0.0521,-0.0583,-0.0535,-0.0544,,no
7.593,0.2216,0.335,0.8918,-0.3605,-0.0694,-0.0521,-0.0583,-0.0535,-0.0544,,no
7.609,0.314,0.3259,0.8404,-0.3605,-0.0694,-0.0521,-0.0583,-0.0535,-0.0544,,no
7.629,0.3815,0.3336,0.7373,-0.3605,-0.0694,-0.0521,-0.0583,-0.0535,-0.0544,,no
7.649,0.3791,0.37,0.6453,-0.3605,-0.0694,-0.0521,-0.0583,-0.0535,-0.0544,,no
7.669,0.42,0.3712,0.6375,-0.3605,-0.0694,-0.0521,-0.0583,-0.0535,-0.0544,,no
7.689,0.5054,0.3609,0.7629,-0.3605,-0.0694,-0.0521,-0.0583,-0.0535,-0.0544,,no
7.703,0.5054,0.3609,0.7629,-0.3605,-0.0694,-0.0521,-0.0583,-0.0535,-0.0544,,no
7.709,0.525,0.3601,0.8322,-0.3605,-0.0694,-0.0521,-0.0583,-0.0535,-0.0544,,no
7.709,0.525,0.3601,0.8322,-0.3605,-0.0694,-0.0521,0.2197,-0.6711,0.5658,,no
7.71,0.525,0.3601,0.8322,-0.6263,-0.0283,-0.1317,0.2197,-0.6711,0.5658,,no
7.728,0.4476,0.3658,0.7813,-0.6263,-0.0283,-0.1317,0.2197,-0.6711,0.5658,,no
7.748,0.3669,0.39,0.7838,-0.6263,-0.0283,-0.1317,0.2197,-0.6711,0.5658,,no
7.768,0.3616,0.3841,0.8185,-0.6263,-0.0283,-0.1317,0.2197,-0.6711,0.5658,,no
7.788,0.3634,0.3799,0.8361,-0.6263,-0.0283,-0.1317,0.2197,-0.6711,0.5658,,no
7.794,0.3634,0.3799,0.8361,-0.6263,-0.0283,-0.1317,0.2197,-0.6711,0.5658,,no
7.808,0.3658,0.3738,0.8324,-0.6263,-0.0283,-0.1317,0.2197,-0.6711,0.5658,,no
7.828,0.3512,0.3486,0.8229,-0.6263,-0.0283,-0.1317,0.2197,-0.6711,0.5658,,no
7.847,0.3102,0.3325,0.8048,-0.6263,-0.0283,-0.1317,0.2197,-0.6711,0.5658,,no
7.867,0.2787,0.3182,0.8068,-0.6263,-0.0283,-0.1317,0.2197,-0.6711,0.5658,,no
7.887,0.2713,0.3104,0.9037,-0.6263,-0.0283,-0.1317,0.2197,-0.6711,0.5658,,no
7.908,0.2956,0.2659,0.9484,-0.6263,-0.0283,-0.1317,0.2197,-0.6711,0.5658,,no
7.908,0.2956,0.2659,0.9484,-0.6263,-0.0283,-0.1317,-0.3766,0.0437,0.1161,,no
7.908,0.2956,0.2659,0.9484,-0.4062,0.6876,-0.225,-0.3766,0.0437,0.1161,,no
7.927,0.2771,0.2478,0.8079,-0.4062,0.6876,-0.225,-0.3766,0.0437,0.1161,,no
7.941,0.2771,0.2478,0.8079,-0.4062,0.6876,-0.225,-0.3766,0.0437,0.1161,,no
7.947,0.1748,0.2235,0.6311,-0.4062,0.6876,-0.225,-0.3766,0.0437,0.1161,,no
7.967,0.2855,0.2239,0.6403,-0.4062,0.6876,-0.225,-0.3766,0.0437,0.1161,,no
7.987,0.483,0.2343,0.9432,-0.4062,0.6876,-0.225,-0.3766,0.0437,0.1161,,no
7.996,0.483,0.2343,0.9432,-0.4062,0.6876,-0.225,-0.3766,0.0437,0.1161,,no
8.007,0.4223,0.1334,0.9536,-0.4062,0.6876,-0.225,-0.3766,0.0437,0.1161,,acc
8.027,0.4113,0.0961,0.9285,-0.4062,0.6876,-0.225,-0.3766,0.0437,0.1161,,acc
8.046,0.421,0.092,0.8873,-0.4062,0.6876,-0.225,-0.3766,0.0437,0.1161,,acc
8.066,0.4703,0.0976,0.9807,-0.4062,0.6876,-0.225,-0.3766,0.0437,0.1161,,acc
8.086,0.5288,0.1047,1.1132,-0.4062,0.6876,-0.225,-0.3766,0.0437,0.1161,,acc
8.107,0.5255,0.0955,1.0626,-0.4062,0.6876,-0.225,-0.3766,0.0437,0.1161,,acc
8.107,0.5255,0.0955,1.0626,-0.4062,0.6876,-0.225,-0.4977,-0.1195,1.091,,acc
8.107,0.5255,0.0955,1.0626,-0.4049,0.4998,0.2667,-0.4977,-0.1195,1.091,,acc
8.108,0.5255,0.0955,1.0626,-0.4049,0.4998,0.2667,-0.4977,-0.1195,1.091,,acc
8.126,0.5662,0.0768,0.9953,-0.4049,0.4998,0.2667,-0.4977,-0.1195,1.091,,acc
8.146,0.6005,0.0858,0.8862,-0.4049,0.4998,0.2667,-0.4977,-0.1195,1.091,,acc
8.165,0.6345,0.1188,0.7464,-0.4049,0.4998,0.2667,-0.4977,-0.1195,1.091,,acc
8.186,0.71,0.1468,0.6937,-0.4049,0.4998,0.2667,-0.4977,-0.1195,1.091,,acc
8.197,0.71,0.1468,0.6937,-0.4049,0.4998,0.2667,-0.4977,-0.1195,1.091,,acc
8.205,0.7008,0.138,0.5919,-0.4049,0.4998,0.2667,-0.4977,-0.1195,1.091,,acc
8.225,0.6911,0.0895,0.4871,-0.4049,0.4998,0.2667,-0.4977,-0.1195,1.091,,acc
8.245,0.7714,0.1262,0.4049,-0.4049,0.4998,0.2667,-0.4977,-0.1195,1.091,,acc
8.266,0.9244,0.0979,0.3287,-0.4049,0.4998,0.2667,-0.4977,-0.1195,1.091,,acc
8.285,0.9026,0.1098,0.5328,-0.4049,0.4998,0.2667,-0.4977,-0.1195,1.091,,acc
8.305,0.8116,0.129,0.6901,-0.4049,0.4998,0.2667,-0.4977,-0.1195,1.091,,acc
8.306,0.8116,0.129,0.6901,-0.4049,0.4998,0.2667,0.3132,-2.007,0.5219,,acc
8.306,0.8116,0.129,0.6901,-0.1884,0.1914,0.1413,0.3132,-2.007,0.5219,,acc
8.307,0.8116,0.129,0.6901,-0.1884,0.1914,0.1413,0.3132,-2.007,0.5219,,acc
8.325,0.8012,0.1062,0.8356,-0.1884,0.1914,0.1413,0.3132,-2.007,0.5219,,acc
8.345,0.7636,0.058,0.7565,-0.1884,0.1914,0.1413,0.3132,-2.007,0.5219,,acc
8.364,0.7512,0.0592,0.689,-0.1884,0.1914,0.1413,0.3132,-2.007,0.5219,,acc
8.385,0.7835,0.0686,0.5905,-0.1884,0.1914,0.1413,0.3132,-2.007,0.5219,,acc
8.398,0.7835,0.0686,0.5905,-0.1884,0.1914,0.1413,0.3132,-2.007,0.5219,,acc
8.404,0.8255,0.053,0.5966,-0.1884,0.1914,0.1413,0.3132,-2.007,0.5219,,acc
8.424,0.8407,0.0499,0.5791,-0.1884,0.1914,0.1413,0.3132,-2.007,0.5219,,acc
8.444,0.7924,0.0777,0.5619,-0.1884,0.1914,0.1413,0.3132,-2.007,0.5219,,acc
8.464,0.7854,0.0365,0.5107,-0.1884,0.1914,0.1413,0.3132,-2.007,0.5219,,acc
8.484,0.7877,0.0027,0.5067,-0.1884,0.1914,0.1413,0.3132,-2.007,0.5219,,acc
8.504,0.7877,0.0027,0.5067,-0.4858,0.217,1.2177,0.3132,-2.007,0.5219,,acc
8.504,0.8241,0.0162,0.5636,-0.4858,0.217,1.2177,0.3132,-2.007,0.5219,,acc
8.505,0.8241,0.0162,0.5636,-0.4858,0.217,1.2177,-0.2458,-0.8507,0.236,,acc
8.509,0.8241,0.0162,0.5636,-0.4858,0.217,1.2177,-0.2458,-0.8507,0.236,,acc
8.523,0.8557,0.0129,0.5715,-0.4858,0.217,1.2177,-0.2458,-0.8507,0.236,,acc
8.543,0.7902,0.0187,0.4535,-0.4858,0.217,1.2177,-0.2458,-0.8507,0.236,,acc
8.563,0.7839,0.0129,0.3276,-0.4858,0.217,1.2177,-0.2458,-0.8507,0.236,,acc
8.583,0.8193,-0.0013,0.2295,-0.4858,0.217,1.2177,-0.2458,-0.8507,0.236,,acc
8.6,0.8193,-0.0013,0.2295,-0.4858,0.217,1.2177,-0.2458,-0.8507,0.236,,acc
8.603,0.8762,0.0074,0.1406,-0.4858,0.217,1.2177,-0.2458,-0.8507,0.236,,acc
8.623,0.9196,0.0134,0.0758,-0.4858,0.217,1.2177,-0.2458,-0.8507,0.236,,acc
8.643,0.9383,0.0123,0.0613,-0.4858,0.217,1.2177,-0.2458,-0.8507,0.236,,acc
8.662,0.8992,-0.0055,0.0839,-0.4858,0.217,1.2177,-0.2458,-0.8507,0.236,,acc
8.682,0.8205,-0.0303,0.118,-0.4858,0.217,1.2177,-0.2458,-0.8507,0.236,,acc
8.702,0.7825,-0.0743,0.1425,-0.4858,0.217,1.2177,-0.2458,-0.8507,0.236,,acc
8.703,0.7825,-0.0743,0.1425,-0.4858,0.217,1.2177,-0.1284,-1.6539,0.4192,,acc
8.703,0.7825,-0.0743,0.1425,-1.0237,0.4803,0.2339,-0.1284,-1.6539,0.4192,,acc
8.71,0.7825,-0.0743,0.1425,-1.0237,0.4803,0.2339,-0.1284,-1.6539,0.4192,,acc
8.722,0.8188,-0.1354,0.1296,-1.0237,0.4803,0.2339,-0.1284,-1.6539,0.4192,,acc
8.742,0.9108,-0.1521,0.0631,-1.0237,0.4803,0.2339,-0.1284,-1.6539,0.4192,,acc
8.762,0.9964,-0.1605,0.0297,-1.0237,0.4803,0.2339,-0.1284,-1.6539,0.4192,,acc
8.782,1.0976,-0.2732,0.0393,-1.0237,0.4803,0.2339,-0.1284,-1.6539,0.4192,,acc
8.802,1.1087,-0.276,0.0764,-1.0237,0.4803,0.2339,-0.1284,-1.6539,0.4192,,acc
8.802,1.1087,-0.276,0.0764,-1.0237,0.4803,0.2339,-0.1284,-1.6539,0.4192,,acc
8.821,1.0904,-0.2707,0.1078,-1.0237,0.4803,0.2339,-0.1284,-1.6539,0.4192,,acc
8.842,0.995,-0.2987,0.2134,-1.0237,0.4803,0.2339,-0.1284,-1.6539,0.4192,,acc
8.861,0.906,-0.3666,0.2168,-1.0237,0.4803,0.2339,-0.1284,-1.6539,0.4192,,acc
8.881,0.9598,-0.3759,-0.0394,-1.0237,0.4803,0.2339,-0.1284,-1.6539,0.4192,,acc
8.901,0.9598,-0.3759,-0.0394,0.7185,-0.4562,3.1733,-0.1284,-1.6539,0.4192,,acc
8.902,0.9486,-0.2963,-0.3201,0.7185,-0.4562,3.1733,-0.1284,-1.6539,0.4192,,acc
8.902,0.9486,-0.2963,-0.3201,0.7185,-0.4562,3.1733,0.2815,-2.608,0.8134,,acc
8.913,0.9486,-0.2963,-0.3201,0.7185,-0.4562,3.1733,0.2815,-2.608,0.8134,,acc
8.921,0.8455,-0.2605,-0.9194,0.7185,-0.4562,3.1733,0.2815,-2.608,0.8134,,acc
8.941,0.6995,-0.2458,-0.9382,0.7185,-0.4562,3.1733,0.2815,-2.608,0.8134,,acc
8.961,0.6118,-0.2217,-0.6333,0.7185,-0.4562,3.1733,0.2815,-2.608,0.8134,,acc
8.981,0.6827,-0.2022,-0.6924,0.7185,-0.4562,3.1733,0.2815,-2.608,0.8134,,acc
9.002,0.7204,-0.3229,-0.6385,0.7185,-0.4562,3.1733,0.2815,-2.608,0.8134,,acc
9.006,0.7204,-0.3229,-0.6385,0.7185,-0.4562,3.1733,0.2815,-2.608,0.8134,,acc
9.021,0.9035,-0.3846,-0.5899,0.7185,-0.4562,3.1733,0.2815,-2.608,0.8134,,acc
9.039,1.0067,-0.3259,-0.6079,0.7185,-0.4562,3.1733,0.2815,-2.608,0.8134,,acc
9.06,0.7828,-0.343,-0.5498,0.7185,-0.4562,3.1733,0.2815,-2.608,0.8134,,acc
9.08,0.6427,-0.3522,-0.7072,0.7185,-0.4562,3.1733,0.2815,-2.608,0.8134,,acc
9.1,0.6754,-0.3351,-0.8037,0.7185,-0.4562,3.1733,0.2815,-2.608,0.8134,,acc
9.1,0.6754,-0.3351,-0.8037,0.7185,-0.4562,3.1733,0.3043,-1.9377,0.3063,,acc
9.101,0.6754,-0.3351,-0.8037,0.262,-0.0664,-1.236,0.3043,-1.9377,0.3063,,acc
9.113,0.6754,-0.3351,-0.8037,0.262,-0.0664,-1.236,0.3043,-1.9377,0.3063,,acc
9.12,0.6685,-0.3236,-0.8711,0.262,-0.0664,-1.236,0.3043,-1.9377,0.3063,,acc
9.14,0.6556,-0.3174,-0.888,0.262,-0.0664,-1.236,0.3043,-1.9377,0.3063,,acc
9.159,0.6599,-0.3494,-0.801,0.262,-0.0664,-1.236,0.3043,-1.9377,0.3063,,acc
9.179,0.6226,-0.3548,-0.6913,0.262,-0.0664,-1.236,0.3043,-1.9377,0.3063,,acc
9.2,0.6202,-0.3253,-0.6242,0.262,-0.0664,-1.236,0.3043,-1.9377,0.3063,,acc
9.204,0.6202,-0.3253,-0.6242,0.262,-0.0664,-1.236,0.3043,-1.9377,0.3063,,acc
9.219,0.6902,-0.3664,-0.6873,0.262,-0.0664,-1.236,0.3043,-1.9377,0.3063,,acc
9.238,0.6228,-0.3991,-0.7052,0.262,-0.0664,-1.236,0.3043,-1.9377,0.3063,,acc
9.259,0.5358,-0.4017,-0.7156,0.262,-0.0664,-1.236,0.3043,-1.9377,0.3063,,acc
9.279,0.4526,-0.5156,-0.4954,0.262,-0.0664,-1.236,0.3043,-1.9377,0.3063,,acc
9.3,0.4526,-0.5156,-0.4954,-0.5692,-0.6518,-0.4597,0.3043,-1.9377,0.3063,,acc
9.3,0.7118,-0.391,-0.3041,-0.5692,-0.6518,-0.4597,0.3043,-1.9377,0.3063,,acc
9.3,0.7118,-0.391,-0.3041,-0.5692,-0.6518,-0.4597,-0.3613,-0.1723,0.416,,acc
9.316,0.7118,-0.391,-0.3041,-0.5692,-0.6518,-0.4597,-0.3613,-0.1723,0.416,,acc
9.318,0.8954,-0.2566,-0.671,-0.5692,-0.6518,-0.4597,-0.3613,-0.1723,0.416,,acc
9.338,0.6957,-0.3197,-0.961,-0.5692,-0.6518,-0.4597,-0.3613,-0.1723,0.416,,acc
9.358,0.5873,-0.3711,-0.8312,-0.5692,-0.6518,-0.4597,-0.3613,-0.1723,0.416,,acc
9.378,0.6802,-0.3407,-0.7149,-0.5692,-0.6518,-0.4597,-0.3613,-0.1723,0.416,,acc
9.398,0.7355,-0.312,-0.7354,-0.5692,-0.6518,-0.4597,-0.3613,-0.1723,0.416,,acc
9.406,0.7355,-0.312,-0.7354,-0.5692,-0.6518,-0.4597,-0.3613,-0.1723,0.416,,acc
9.418,0.7041,-0.2745,-0.7422,-0.5692,-0.6518,-0.4597,-0.3613,-0.1723,0.416,,acc
9.438,0.704,-0.2898,-0.7424,-0.5692,-0.6518,-0.4597,-0.3613,-0.1723,0.416,,acc
9.458,0.6746,-0.2793,-0.6516,-0.5692,-0.6518,-0.4597,-0.3613,-0.1723,0.416,,acc
9.477,0.5665,-0.2937,-0.6325,-0.5692,-0.6518,-0.4597,-0.3613,-0.1723,0.416,,acc
9.498,0.4279,-0.3463,-0.6145,-0.5692,-0.6518,-0.4597,-0.3613,-0.1723,0.416,,acc
9.499,0.4279,-0.3463,-0.6145,-0.5692,-0.6518,-0.4597,-0.2213,-0.3509,0.2328,,acc
9.499,0.4279,-0.3463,-0.6145,0.4244,0.0099,-0.3654,-0.2213,-0.3509,0.2328,,acc
9.517,0.9102,-0.2889,-0.7454,0.4244,0.0099,-0.3654,-0.2213,-0.3509,0.2328,,acc
9.537,0.8249,-0.312,-0.998,0.4244,0.0099,-0.3654,-0.2213,-0.3509,0.2328,,acc
9.552,0.8249,-0.312,-0.998,0.4244,0.0099,-0.3654,-0.2213,-0.3509,0.2328,,acc
9.557,0.6218,-0.3344,-0.9829,0.4244,0.0099,-0.3654,-0.2213,-0.3509,0.2328,,acc
9.577,0.6055,-0.2624,-0.8428,0.4244,0.0099,-0.3654,-0.2213,-0.3509,0.2328,,acc
9.597,0.6626,-0.2263,-0.7218,0.4244,0.0099,-0.3654,-0.2213,-0.3509,0.2328,,acc
9.607,0.6626,-0.2263,-0.7218,0.4244,0.0099,-0.3654,-0.2213,-0.3509,0.2328,,acc
9.617,0.6347,-0.2299,-0.9603,0.4244,0.0099,-0.3654,-0.2213,-0.3509,0.2328,,acc
9.637,0.5584,-0.2123,-1.08,0.4244,0.0099,-0.3654,-0.2213,-0.3509,0.2328,,acc
9.657,0.6262,-0.1395,-0.8964,0.4244,0.0099,-0.3654,-0.2213,-0.3509,0.2328,,acc
9.677,0.7618,-0.0675,-0.7157,0.4244,0.0099,-0.3654,-0.2213,-0.3509,0.2328,,acc
9.697,0.7618,-0.0675,-0.7157,0.5408,0.0272,-1.4751,-0.2213,-0.3509,0.2328,,acc
9.698,0.9661,-0.1201,-0.5721,0.5408,0.0272,-1.4751,-0.2213,-0.3509,0.2328,,acc
9.698,0.9661,-0.1201,-0.5721,0.5408,0.0272,-1.4751,-0.6983,0.2868,0.079,,acc
9.717,0.9399,-0.0901,-0.4206,0.5408,0.0272,-1.4751,-0.6983,0.2868,0.079,,acc
9.718,0.9399,-0.0901,-0.4206,0.5408,0.0272,-1.4751,-0.6983,0.2868,0.079,,acc
9.737,0.7865,-0.0463,-0.1478,0.5408,0.0272,-1.4751,-0.6983,0.2868,0.079,,acc
9.756,0.5806,0.0089,-0.501,0.5408,0.0272,-1.4751,-0.6983,0.2868,0.079,,acc
9.776,0.4406,0.054,-0.7992,0.5408,0.0272,-1.4751,-0.6983,0.2868,0.079,,acc
9.796,0.5657,-0.0138,-0.8993,0.5408,0.0272,-1.4751,-0.6983,0.2868,0.079,,acc
9.808,0.5657,-0.0138,-0.8993,0.5408,0.0272,-1.4751,-0.6983,0.2868,0.079,,acc
9.816,0.7459,-0.0545,-0.8407,0.5408,0.0272,-1.4751,-0.6983,0.2868,0.079,,acc
9.836,0.6503,-0.0346,-0.7821,0.5408,0.0272,-1.4751,-0.6983,0.2868,0.079,,acc
9.855,0.4962,-0.0265,-0.8628,0.5408,0.0272,-1.4751,-0.6983,0.2868,0.079,,acc
9.876,0.4851,-0.029,-0.8633,0.5408,0.0272,-1.4751,-0.6983,0.2868,0.079,,acc
9.896,0.4851,-0.029,-0.8633,0.4576,0.9368,0.9111,-0.6983,0.2868,0.079,,acc
9.897,0.5072,-0.0069,-0.8915,0.4576,0.9368,0.9111,-0.6983,0.2868,0.079,,acc
9.897,0.5072,-0.0069,-0.8915,0.4576,0.9368,0.9111,-0.1789,-0.737,-0.5836,,acc
9.915,0.5902,-0.0414,-0.8237,0.4576,0.9368,0.9111,-0.1789,-0.737,-0.5836,,acc
9.935,0.6,-0.0606,-0.77,0.4576,0.9368,0.9111,-0.1789,-0.737,-0.5836,,acc
9.955,0.4731,-0.0439,-0.8709,0.4576,0.9368,0.9111,-0.1789,-0.737,-0.5836,,acc
9.975,0.3948,-0.033,-0.8838,0.4576,0.9368,0.9111,-0.1789,-0.737,-0.5836,,acc
9.994,0.4744,-0.0195,-0.777,0.4576,0.9368,0.9111,-0.1789,-0.737,-0.5836,,acc
10.01,0.4744,-0.0195,-0.777,0.4576,0.9368,0.9111,-0.1789,-0.737,-0.5836,,acc
10.014,0.4823,-0.0074,-0.7123,0.4576,0.9368,0.9111,-0.1789,-0.737,-0.5836,,acc
10.034,0.3031,-0.0004,-0.8329,0.4576,0.9368,0.9111,-0.1789,-0.737,-0.5836,,acc
10.054,0.3165,0.0167,-0.9321,0.4576,0.9368,0.9111,-0.1789,-0.737,-0.5836,,acc
10.074,0.5338,0.0035,-1.0391,0.4576,0.9368,0.9111,-0.1789,-0.737,-0.5836,,acc
10.094,0.5338,0.0035,-1.0391,0.0025,1.3561,-0.2236,-0.1789,-0.737,-0.5836,,acc
10.095,0.5624,-0.0119,-1.0951,0.0025,1.3561,-0.2236,-0.1789,-0.737,-0.5836,,acc
10.095,0.5624,-0.0119,-1.0951,0.0025,1.3561,-0.2236,0.5557,-0.6801,-0.4394,,acc
10.114,0.4254,-0.0295,-1.1772,0.0025,1.3561,-0.2236,0.5557,-0.6801,-0.4394,,acc
10.12,0.4254,-0.0295,-1.1772,0.0025,1.3561,-0.2236,0.5557,-0.6801,-0.4394,,acc
10.134,0.4459,-0.0472,-1.1363,0.0025,1.3561,-0.2236,0.5557,-0.6801,-0.4394,,acc
10.153,0.5065,-0.0397,-0.9071,0.0025,1.3561,-0.2236,0.5557,-0.6801,-0.4394,,acc
10.174,0.4426,0.0177,-0.8022,0.0025,1.3561,-0.2236,0.5557,-0.6801,-0.4394,,acc
10.193,0.439,0.0281,-0.817,0.0025,1.3561,-0.2236,0.5557,-0.6801,-0.4394,,acc
10.211,0.439,0.0281,-0.817,0.0025,1.3561,-0.2236,0.5557,-0.6801,-0.4394,,acc
10.212,0.4797,0.0017,-0.8478,0.0025,1.3561,-0.2236,0.5557,-0.6801,-0.4394,,acc
10.233,0.5266,-0.0378,-0.9102,0.0025,1.3561,-0.2236,0.5557,-0.6801,-0.4394,,acc
10.253,0.5562,-0.0925,-0.8712,0.0025,1.3561,-0.2236,0.5557,-0.6801,-0.4394,,acc
10.273,0.5249,-0.0642,-0.833,0.0025,1.3561,-0.2236,0.5557,-0.6801,-0.4394,,acc
10.293,0.5249,-0.0642,-0.833,-0.0195,1.02,-0.6887,0.5557,-0.6801,-0.4394,,acc
10.293,0.5334,-0.0206,-0.8834,-0.0195,1.02,-0.6887,0.5557,-0.6801,-0.4394,,acc
10.294,0.5334,-0.0206,-0.8834,-0.0195,1.02,-0.6887,-0.0556,0.0807,-0.1168,,acc
10.312,0.4911,-0.0217,-0.973,-0.0195,1.02,-0.6887,-0.0556,0.0807,-0.1168,,acc
10.322,0.4911,-0.0217,-0.973,-0.0195,1.02,-0.6887,-0.0556,0.0807,-0.1168,,acc
10.333,0.4695,0.0019,-0.8801,-0.0195,1.02,-0.6887,-0.0556,0.0807,-0.1168,,acc
10.352,0.4227,0.0641,-0.8161,-0.0195,1.02,-0.6887,-0.0556,0.0807,-0.1168,,acc
10.372,0.3721,0.0963,-0.9853,-0.0195,1.02,-0.6887,-0.0556,0.0807,-0.1168,,acc
10.392,0.4161,0.0386,-0.9868,-0.0195,1.02,-0.6887,-0.0556,0.0807,-0.1168,,acc
10.412,0.4596,0.0299,-0.9313,-0.0195,1.02,-0.6887,-0.0556,0.0807,-0.1168,,acc
10.413,0.4596,0.0299,-0.9313,-0.0195,1.02,-0.6887,-0.0556,0.0807,-0.1168,,acc
10.431,0.5188,0.043,-0.9424,-0.0195,1.02,-0.6887,-0.0556,0.0807,-0.1168,,acc
10.452,0.4896,0.0414,-0.8997,-0.0195,1.02,-0.6887,-0.0556,0.0807,-0.1168,,acc
10.471,0.4141,0.0387,-0.8624,-0.0195,1.02,-0.6887,-0.0556,0.0807,-0.1168,,acc
10.492,0.4141,0.0387,-0.8624,-0.3319,1.3344,-0.5287,-0.0556,0.0807,-0.1168,,acc
10.492,0.4029,0.0171,-0.8571,-0.3319,1.3344,-0.5287,-0.0556,0.0807,-0.1168,,acc
10.493,0.4029,0.0171,-0.8571,-0.3319,1.3344,-0.5287,-0.0909,-0.0641,-0.0895,,acc
10.511,0.4904,-0.0184,-0.8251,-0.3319,1.3344,-0.5287,-0.0909,-0.0641,-0.0895,,acc
10.523,0.4904,-0.0184,-0.8251,-0.3319,1.3344,-0.5287,-0.0909,-0.0641,-0.0895,,acc
10.531,0.5037,-0.0122,-0.8952,-0.3319,1.3344,-0.5287,-0.0909,-0.0641,-0.0895,,acc
10.551,0.5055,-0.0212,-0.9482,-0.3319,1.3344,-0.5287,-0.0909,-0.0641,-0.0895,,acc
10.571,0.5285,-0.0442,-0.9324,-0.3319,1.3344,-0.5287,-0.0909,-0.0641,-0.0895,,acc
10.59,0.4533,-0.0176,-0.8762,-0.3319,1.3344,-0.5287,-0.0909,-0.0641,-0.0895,,acc
10.611,0.4141,-0.0534,-0.9559,-0.3319,1.3344,-0.5287,-0.0909,-0.0641,-0.0895,,acc
10.614,0.4141,-0.0534,-0.9559,-0.3319,1.3344,-0.5287,-0.0909,-0.0641,-0.0895,,acc
10.63,0.4375,-0.0923,-1.1224,-0.3319,1.3344,-0.5287,-0.0909,-0.0641,-0.0895,,acc
10.651,0.3655,-0.0169,-1.1623,-0.3319,1.3344,-0.5287,-0.0909,-0.0641,-0.0895,,acc
10.67,0.3402,-0.057,-1.0595,-0.3319,1.3344,-0.5287,-0.0909,-0.0641,-0.0895,,acc
10.691,0.3402,-0.057,-1.0595,0.6347,0.5396,-0.5519,-0.0909,-0.0641,-0.0895,,acc
10.691,0.3604,-0.0204,-0.9371,0.6347,0.5396,-0.5519,-0.0909,-0.0641,-0.0895,,acc
10.691,0.3604,-0.0204,-0.9371,0.6347,0.5396,-0.5519,-0.1303,-0.5919,0.1793,,acc
10.71,0.3511,0.0013,-0.9305,0.6347,0.5396,-0.5519,-0.1303,-0.5919,0.1793,,acc
10.725,0.3511,0.0013,-0.9305,0.6347,0.5396,-0.5519,-0.1303,-0.5919,0.1793,,acc
10.73,0.3204,0.0096,-0.9373,0.6347,0.5396,-0.5519,-0.1303,-0.5919,0.1793,,acc
10.75,0.4197,0.0028,-0.8095,0.6347,0.5396,-0.5519,-0.1303,-0.5919,0.1793,,acc
10.77,0.4956,-0.0031,-0.8854,0.6347,0.5396,-0.5519,-0.1303,-0.5919,0.1793,,acc
10.789,0.3015,-0.0383,-1.0824,0.6347,0.5396,-0.5519,-0.1303,-0.5919,0.1793,,acc
10.81,0.2735,0.0108,-1.0172,0.6347,0.5396,-0.5519,-0.1303,-0.5919,0.1793,,acc
10.816,0.2735,0.0108,-1.0172,0.6347,0.5396,-0.5519,-0.1303,-0.5919,0.1793,,acc
10.829,0.3921,0.0107,-0.9913,0.6347,0.5396,-0.5519,-0.1303,-0.5919,0.1793,,acc
10.849,0.3771,0.0559,-1.0205,0.6347,0.5396,-0.5519,-0.1303,-0.5919,0.1793,,acc
10.869,0.2624,0.138,-1.0404,0.6347,0.5396,-0.5519,-0.1303,-0.5919,0.1793,,acc
10.89,0.2177,0.1773,-0.93,0.6347,0.5396,-0.5519,-0.1303,-0.5919,0.1793,,acc
10.89,0.2177,0.1773,-0.93,-0.0766,1.1065,-0.358,-0.1303,-0.5919,0.1793,,acc
10.89,0.2177,0.1773,-0.93,-0.0766,1.1065,-0.358,-0.1075,-0.1255,0.1651,,acc
10.909,0.387,0.057,-0.8198,-0.0766,1.1065,-0.358,-0.1075,-0.1255,0.1651,,acc
10.926,0.387,0.057,-0.8198,-0.0766,1.1065,-0.358,-0.1075,-0.1255,0.1651,,acc
10.929,0.4557,0.0141,-0.7989,-0.0766,1.1065,-0.358,-0.1075,-0.1255,0.1651,,acc
10.948,0.3242,-0.0185,-0.8462,-0.0766,1.1065,-0.358,-0.1075,-0.1255,0.1651,,acc
10.969,0.1717,-0.0664,-1.011,-0.0766,1.1065,-0.358,-0.1075,-0.1255,0.1651,,acc
10.988,0.222,-0.055,-1.2929,-0.0766,1.1065,-0.358,-0.1075,-0.1255,0.1651,,acc
11.009,0.2492,-0.0488,-1.386,-0.0766,1.1065,-0.358,-0.1075,-0.1255,0.1651,,Lturn
11.017,0.2492,-0.0488,-1.386,-0.0766,1.1065,-0.358,-0.1075,-0.1255,0.1651,,Lturn
11.028,0.1892,-0.1009,-1.2876,-0.0766,1.1065,-0.358,-0.1075,-0.1255,0.1651,,Lturn
11.048,0.2063,-0.0695,-1.0998,-0.0766,1.1065,-0.358,-0.1075,-0.1255,0.1651,,Lturn
11.068,0.2612,-0.0405,-0.9159,-0.0766,1.1065,-0.358,-0.1075,-0.1255,0.1651,,Lturn
11.089,0.2612,-0.0405,-0.9159,-0.3906,0.4481,-0.8782,-0.1075,-0.1255,0.1651,,Lturn
11.089,0.3274,-0.0731,-0.8531,-0.3906,0.4481,-0.8782,-0.1075,-0.1255,0.1651,,Lturn
11.09,0.3274,-0.0731,-0.8531,-0.3906,0.4481,-0.8782,-0.0098,-0.131,0.2053,,Lturn
11.107,0.3788,-0.0234,-0.8674,-0.3906,0.4481,-0.8782,-0.0098,-0.131,0.2053,,Lturn
11.128,0.3601,0.0409,-0.8469,-0.3906,0.4481,-0.8782,-0.0098,-0.131,0.2053,,Lturn
11.147,0.4085,0.073,-0.8241,-0.3906,0.4481,-0.8782,-0.0098,-0.131,0.2053,,Lturn
11.164,0.4085,0.073,-0.8241,-0.3906,0.4481,-0.8782,-0.0098,-0.131,0.2053,,Lturn
11.167,0.3909,0.0791,-0.8436,-0.3906,0.4481,-0.8782,-0.0098,-0.131,0.2053,,Lturn
11.187,0.3312,0.0989,-0.9227,-0.3906,0.4481,-0.8782,-0.0098,-0.131,0.2053,,Lturn
11.207,0.3819,0.0867,-0.9854,-0.3906,0.4481,-0.8782,-0.0098,-0.131,0.2053,,Lturn
11.218,0.3819,0.0867,-0.9854,-0.3906,0.4481,-0.8782,-0.0098,-0.131,0.2053,,Lturn
11.226,0.4026,0.0863,-1.0333,-0.3906,0.4481,-0.8782,-0.0098,-0.131,0.2053,,Lturn
11.247,0.351,0.1321,-1.156,-0.3906,0.4481,-0.8782,-0.0098,-0.131,0.2053,,Lturn
11.266,0.3127,0.1363,-1.2071,-0.3906,0.4481,-0.8782,-0.0098,-0.131,0.2053,,Lturn
11.287,0.3127,0.1363,-1.2071,0.5653,1.0361,-0.3003,-0.0098,-0.131,0.2053,,Lturn
11.287,0.3164,0.1045,-1.1397,0.5653,1.0361,-0.3003,-0.0098,-0.131,0.2053,,Lturn
11.288,0.3164,0.1045,-1.1397,0.5653,1.0361,-0.3003,-0.354,-0.0763,0.1723,,Lturn
11.306,0.2634,0.1043,-1.0821,0.5653,1.0361,-0.3003,-0.354,-0.0763,0.1723,,Lturn
11.331,0.2818,0.081,-1.169,0.5653,1.0361,-0.3003,-0.354,-0.0763,0.1723,,Lturn
11.332,0.2818,0.081,-1.169,0.5653,1.0361,-0.3003,-0.354,-0.0763,0.1723,,Lturn
11.346,0.3055,0.0662,-1.1248,0.5653,1.0361,-0.3003,-0.354,-0.0763,0.1723,,Lturn
11.366,0.2658,0.089,-0.9746,0.5653,1.0361,-0.3003,-0.354,-0.0763,0.1723,,Lturn
11.386,0.2635,0.1026,-0.9665,0.5653,1.0361,-0.3003,-0.354,-0.0763,0.1723,,Lturn
11.406,0.233,0.1154,-0.979,0.5653,1.0361,-0.3003,-0.354,-0.0763,0.1723,,Lturn
11.419,0.233,0.1154,-0.979,0.5653,1.0361,-0.3003,-0.354,-0.0763,0.1723,,Lturn
11.425,0.2206,0.128,-0.9014,0.5653,1.0361,-0.3003,-0.354,-0.0763,0.1723,,Lturn
11.446,0.1579,0.1573,-0.8694,0.5653,1.0361,-0.3003,-0.354,-0.0763,0.1723,,Lturn
11.465,0.1794,0.1615,-0.9075,0.5653,1.0361,-0.3003,-0.354,-0.0763,0.1723,,Lturn
11.486,0.2402,0.1965,-1.0438,0.5653,1.0361,-0.3003,-0.354,-0.0763,0.1723,,Lturn
11.486,0.2402,0.1965,-1.0438,0.5653,1.0361,-0.3003,-0.3726,-0.072,0.3087,,Lturn
11.487,0.2402,0.1965,-1.0438,-0.4769,0.857,-0.4257,-0.3726,-0.072,0.3087,,Lturn
11.505,0.2969,0.1621,-1.0584,-0.4769,0.857,-0.4257,-0.3726,-0.072,0.3087,,Lturn
11.525,0.3882,0.0905,-1.0058,-0.4769,0.857,-0.4257,-0.3726,-0.072,0.3087,,Lturn
11.53,0.3882,0.0905,-1.0058,-0.4769,0.857,-0.4257,-0.3726,-0.072,0.3087,,Lturn
11.545,0.3821,0.1494,-1.1386,-0.4769,0.857,-0.4257,-0.3726,-0.072,0.3087,,Lturn
11.565,0.2651,0.236,-1.1205,-0.4769,0.857,-0.4257,-0.3726,-0.072,0.3087,,Lturn
11.585,0.2165,0.2521,-0.9551,-0.4769,0.857,-0.4257,-0.3726,-0.072,0.3087,,Lturn
11.605,0.2638,0.2122,-0.8028,-0.4769,0.857,-0.4257,-0.3726,-0.072,0.3087,,Lturn
11.621,0.2638,0.2122,-0.8028,-0.4769,0.857,-0.4257,-0.3726,-0.072,0.3087,,Lturn
11.624,0.2674,0.193,-0.8618,-0.4769,0.857,-0.4257,-0.3726,-0.072,0.3087,,Lturn
11.645,0.2384,0.2103,-0.9869,-0.4769,0.857,-0.4257,-0.3726,-0.072,0.3087,,Lturn
11.664,0.2203,0.2038,-0.8562,-0.4769,0.857,-0.4257,-0.3726,-0.072,0.3087,,Lturn
11.685,0.2449,0.1262,-0.6018,-0.4769,0.857,-0.4257,-0.3726,-0.072,0.3087,,Lturn
11.686,0.2449,0.1262,-0.6018,-0.4769,0.857,-0.4257,-0.0302,-0.228,-0.0252,,Lturn
11.686,0.2449,0.1262,-0.6018,0.3028,1.3406,0.2934,-0.0302,-0.228,-0.0252,,Lturn
11.704,0.2818,0.0193,-0.5998,0.3028,1.3406,0.2934,-0.0302,-0.228,-0.0252,,Lturn
11.724,0.2842,-0.0618,-0.9049,0.3028,1.3406,0.2934,-0.0302,-0.228,-0.0252,,Lturn
11.732,0.2842,-0.0618,-0.9049,0.3028,1.3406,0.2934,-0.0302,-0.228,-0.0252,,Lturn
11.744,0.218,-0.0309,-1.2999,0.3028,1.3406,0.2934,-0.0302,-0.228,-0.0252,,Lturn
11.764,0.1494,-0.0009,-1.2756,0.3028,1.3406,0.2934,-0.0302,-0.228,-0.0252,,Lturn
11.784,0.1866,-0.0974,-0.8894,0.3028,1.3406,0.2934,-0.0302,-0.228,-0.0252,,Lturn
11.804,0.3171,-0.1472,-0.8455,0.3028,1.3406,0.2934,-0.0302,-0.228,-0.0252,,Lturn
11.825,0.3171,-0.1472,-0.8455,0.3028,1.3406,0.2934,-0.0302,-0.228,-0.0252,,Lturn
11.826,0.3289,-0.0976,-1.1524,0.3028,1.3406,0.2934,-0.0302,-0.228,-0.0252,,Lturn
11.843,0.1803,0.0169,-1.3513,0.3028,1.3406,0.2934,-0.0302,-0.228,-0.0252,,Lturn
11.863,0.158,0.0797,-1.3308,0.3028,1.3406,0.2934,-0.0302,-0.228,-0.0252,,Lturn
11.883,0.158,0.0797,-1.3308,1.0173,-0.3126,-0.7789,-0.0302,-0.228,-0.0252,,Lturn
11.884,0.2073,0.0642,-1.1218,1.0173,-0.3126,-0.7789,-0.0302,-0.228,-0.0252,,Lturn
11.884,0.2073,0.0642,-1.1218,1.0173,-0.3126,-0.7789,0.2742,-0.6306,-0.4123,,Lturn
11.903,0.2319,0.0549,-0.9123,1.0173,-0.3126,-0.7789,0.2742,-0.6306,-0.4123,,Lturn
11.923,0.1962,0.0698,-0.9351,1.0173,-0.3126,-0.7789,0.2742,-0.6306,-0.4123,,Lturn
11.933,0.1962,0.0698,-0.9351,1.0173,-0.3126,-0.7789,0.2742,-0.6306,-0.4123,,Lturn
11.943,0.203,0.0755,-0.902,1.0173,-0.3126,-0.7789,0.2742,-0.6306,-0.4123,,Lturn
11.963,0.2044,0.0389,-0.8122,1.0173,-0.3126,-0.7789,0.2742,-0.6306,-0.4123,,Lturn
11.982,0.2115,-0.0147,-0.7981,1.0173,-0.3126,-0.7789,0.2742,-0.6306,-0.4123,,Lturn
12.003,0.2457,-0.0871,-0.8927,1.0173,-0.3126,-0.7789,0.2742,-0.6306,-0.4123,,Lturn
12.022,0.2041,-0.1152,-1.0564,1.0173,-0.3126,-0.7789,0.2742,-0.6306,-0.4123,,Lturn
12.023,0.2041,-0.1152,-1.0564,1.0173,-0.3126,-0.7789,0.2742,-0.6306,-0.4123,,Lturn
12.042,0.2887,-0.1586,-1.0791,1.0173,-0.3126,-0.7789,0.2742,-0.6306,-0.4123,,Lturn
12.062,0.2944,-0.132,-1.0474,1.0173,-0.3126,-0.7789,0.2742,-0.6306,-0.4123,,Lturn
12.082,0.2944,-0.132,-1.0474,0.578,0.6668,0.3414,0.2742,-0.6306,-0.4123,,Lturn
12.083,0.3076,-0.1158,-1.0378,0.578,0.6668,0.3414,0.2742,-0.6306,-0.4123,,Lturn
12.083,0.3076,-0.1158,-1.0378,0.578,0.6668,0.3414,0.6134,0.2442,-0.1841,,Lturn
12.102,0.3447,-0.1813,-0.9136,0.578,0.6668,0.3414,0.6134,0.2442,-0.1841,,Lturn
12.122,0.4157,-0.2353,-0.9762,0.578,0.6668,0.3414,0.6134,0.2442,-0.1841,,Lturn
12.134,0.4157,-0.2353,-0.9762,0.578,0.6668,0.3414,0.6134,0.2442,-0.1841,,Lturn
12.141,0.3457,-0.1748,-1.0557,0.578,0.6668,0.3414,0.6134,0.2442,-0.1841,,Lturn
12.165,0.2051,-0.0817,-1.0493,0.578,0.6668,0.3414,0.6134,0.2442,-0.1841,,Lturn
12.182,0.1228,-0.048,-1.0422,0.578,0.6668,0.3414,0.6134,0.2442,-0.1841,,Lturn
12.201,0.0843,-0.0546,-1.0174,0.578,0.6668,0.3414,0.6134,0.2442,-0.1841,,Lturn
12.221,0.1211,-0.069,-1.086,0.578,0.6668,0.3414,0.6134,0.2442,-0.1841,,Lturn
12.225,0.1211,-0.069,-1.086,0.578,0.6668,0.3414,0.6134,0.2442,-0.1841,,Lturn
12.24,0.1753,-0.1052,-1.1187,0.578,0.6668,0.3414,0.6134,0.2442,-0.1841,,Lturn
12.26,0.2083,-0.1309,-1.0234,0.578,0.6668,0.3414,0.6134,0.2442,-0.1841,,Lturn
12.28,0.0986,-0.0568,-0.9592,0.578,0.6668,0.3414,0.6134,0.2442,-0.1841,,Lturn
12.28,0.0986,-0.0568,-0.9592,0.578,0.6668,0.3414,0.0352,-0.323,-0.2811,,Lturn
12.28,0.0986,-0.0568,-0.9592,0.8312,-0.0874,-0.3079,0.0352,-0.323,-0.2811,,Lturn
12.299,0.0184,-0.0152,-0.9186,0.8312,-0.0874,-0.3079,0.0352,-0.323,-0.2811,,Lturn
12.32,0.0704,-0.0563,-0.8589,0.8312,-0.0874,-0.3079,0.0352,-0.323,-0.2811,,Lturn
12.339,0.1659,-0.0974,-0.7802,0.8312,-0.0874,-0.3079,0.0352,-0.323,-0.2811,,Lturn
12.359,0.1838,-0.0808,-0.8274,0.8312,-0.0874,-0.3079,0.0352,-0.323,-0.2811,,Lturn
12.379,0.1978,-0.0346,-0.9543,0.8312,-0.0874,-0.3079,0.0352,-0.323,-0.2811,,Lturn
12.4,0.3207,-0.0384,-1.0441,0.8312,-0.0874,-0.3079,0.0352,-0.323,-0.2811,,Lturn
12.419,0.3474,-0.0916,-1.0029,0.8312,-0.0874,-0.3079,0.0352,-0.323,-0.2811,,Lturn
12.426,0.3474,-0.0916,-1.0029,0.8312,-0.0874,-0.3079,0.0352,-0.323,-0.2811,,Lturn
12.439,0.4449,-0.244,-0.7933,0.8312,-0.0874,-0.3079,0.0352,-0.323,-0.2811,,Lturn
12.459,0.5005,-0.2309,-0.9069,0.8312,-0.0874,-0.3079,0.0352,-0.323,-0.2811,,Lturn
12.479,0.3292,-0.0654,-1.2775,0.8312,-0.0874,-0.3079,0.0352,-0.323,-0.2811,,Lturn
12.479,0.3292,-0.0654,-1.2775,0.8312,-0.0874,-0.3079,-0.0613,0.5435,0.046,,Lturn
12.48,0.3292,-0.0654,-1.2775,0.233,-0.0047,0.3541,-0.0613,0.5435,0.046,,Lturn
12.499,0.2914,-0.0609,-1.2826,0.233,-0.0047,0.3541,-0.0613,0.5435,0.046,,Lturn
12.519,0.2996,-0.1459,-0.9648,0.233,-0.0047,0.3541,-0.0613,0.5435,0.046,,Lturn
12.537,0.2996,-0.1459,-0.9648,0.233,-0.0047,0.3541,-0.0613,0.5435,0.046,,Lturn
12.538,0.2515,-0.1707,-0.9196,0.233,-0.0047,0.3541,-0.0613,0.5435,0.046,,Lturn
12.558,0.168,-0.1118,-1.138,0.233,-0.0047,0.3541,-0.0613,0.5435,0.046,,Lturn
12.578,0.1648,-0.1032,-1.2417,0.233,-0.0047,0.3541,-0.0613,0.5435,0.046,,Lturn
12.598,0.2865,-0.1346,-1.0691,0.233,-0.0047,0.3541,-0.0613,0.5435,0.046,,Lturn
12.618,0.3353,-0.1547,-0.9148,0.233,-0.0047,0.3541,-0.0613,0.5435,0.046,,Lturn
12.627,0.3353,-0.1547,-0.9148,0.233,-0.0047,0.3541,-0.0613,0.5435,0.046,,Lturn
12.638,0.3575,-0.129,-0.8906,0.233,-0.0047,0.3541,-0.0613,0.5435,0.046,,Lturn
12.658,0.2686,-0.0639,-1.01,0.233,-0.0047,0.3541,-0.0613,0.5435,0.046,,Lturn
12.678,0.2686,-0.0639,-1.01,0.5911,-0.524,-0.6805,-0.0613,0.5435,0.046,,Lturn
12.679,0.3076,-0.0618,-1.11,0.5911,-0.524,-0.6805,-0.0613,0.5435,0.046,,Lturn
12.679,0.3076,-0.0618,-1.11,0.5911,-0.524,-0.6805,-0.1894,-0.1276,-0.0203,,Lturn
12.697,0.2854,-0.0646,-1.0016,0.5911,-0.524,-0.6805,-0.1894,-0.1276,-0.0203,,Lturn
12.717,0.2568,-0.0848,-0.9219,0.5911,-0.524,-0.6805,-0.1894,-0.1276,-0.0203,,Lturn
12.737,0.2798,-0.1073,-0.8921,0.5911,-0.524,-0.6805,-0.1894,-0.1276,-0.0203,,Lturn
12.759,0.1647,-0.0453,-0.9798,0.5911,-0.524,-0.6805,-0.1894,-0.1276,-0.0203,,Lturn
12.775,0.1647,-0.0453,-0.9798,0.5911,-0.524,-0.6805,-0.1894,-0.1276,-0.0203,,Lturn
12.779,0.0477,-0.0009,-1.0542,0.5911,-0.524,-0.6805,-0.1894,-0.1276,-0.0203,,Lturn
12.798,0.2912,-0.0478,-1.0438,0.5911,-0.524,-0.6805,-0.1894,-0.1276,-0.0203,,Lturn
12.818,0.312,-0.1263,-0.9172,0.5911,-0.524,-0.6805,-0.1894,-0.1276,-0.0203,,Lturn
12.83,0.312,-0.1263,-0.9172,0.5911,-0.524,-0.6805,-0.1894,-0.1276,-0.0203,,Lturn
12.84,0.3101,-0.2391,-0.7898,0.5911,-0.524,-0.6805,-0.1894,-0.1276,-0.0203,,Lturn
12.857,0.2879,-0.2972,-0.9167,0.5911,-0.524,-0.6805,-0.1894,-0.1276,-0.0203,,Lturn
12.877,0.2041,-0.2017,-1.2249,0.5911,-0.524,-0.6805,-0.1894,-0.1276,-0.0203,,Lturn
12.877,0.2041,-0.2017,-1.2249,0.5911,-0.524,-0.6805,0.0352,-0.4103,-0.3071,,Lturn
12.877,0.2041,-0.2017,-1.2249,1.013,-0.6038,0.2265,0.0352,-0.4103,-0.3071,,Lturn
12.897,0.145,-0.1594,-1.1847,1.013,-0.6038,0.2265,0.0352,-0.4103,-0.3071,,Lturn
12.916,0.2291,-0.2513,-0.8635,1.013,-0.6038,0.2265,0.0352,-0.4103,-0.3071,,Lturn
12.936,0.2771,-0.3345,-0.7169,1.013,-0.6038,0.2265,0.0352,-0.4103,-0.3071,,Lturn
12.939,0.2771,-0.3345,-0.7169,1.013,-0.6038,0.2265,0.0352,-0.4103,-0.3071,,Lturn
12.956,0.2261,-0.3447,-0.8751,1.013,-0.6038,0.2265,0.0352,-0.4103,-0.3071,,Lturn
12.976,0.1897,-0.3291,-1.0674,1.013,-0.6038,0.2265,0.0352,-0.4103,-0.3071,,Lturn
12.997,0.1458,-0.346,-1.0874,1.013,-0.6038,0.2265,0.0352,-0.4103,-0.3071,,Lturn
13.016,0.1221,-0.3251,-1.0785,1.013,-0.6038,0.2265,0.0352,-0.4103,-0.3071,,Lturn
13.031,0.1221,-0.3251,-1.0785,1.013,-0.6038,0.2265,0.0352,-0.4103,-0.3071,,Lturn
13.036,0.0957,-0.2989,-1.0266,1.013,-0.6038,0.2265,0.0352,-0.4103,-0.3071,,Lturn
13.056,0.098,-0.336,-0.9726,1.013,-0.6038,0.2265,0.0352,-0.4103,-0.3071,,Lturn
13.076,0.1244,-0.4036,-0.9896,1.013,-0.6038,0.2265,0.0352,-0.4103,-0.3071,,Lturn
13.076,0.1244,-0.4036,-0.9896,1.013,-0.6038,0.2265,0.143,-0.313,-0.4805,,Lturn
13.077,0.1244,-0.4036,-0.9896,0.7493,-2.1873,0.1499,0.143,-0.313,-0.4805,,Lturn
13.095,0.2131,-0.4447,-1.1444,0.7493,-2.1873,0.1499,0.143,-0.313,-0.4805,,Lturn
13.116,0.1935,-0.4189,-1.0865,0.7493,-2.1873,0.1499,0.143,-0.313,-0.4805,,Lturn
13.135,0.1538,-0.4499,-0.9501,0.7493,-2.1873,0.1499,0.143,-0.313,-0.4805,,Lturn
13.141,0.1538,-0.4499,-0.9501,0.7493,-2.1873,0.1499,0.143,-0.313,-0.4805,,Lturn
13.156,0.1519,-0.442,-0.9487,0.7493,-2.1873,0.1499,0.143,-0.313,-0.4805,,Lturn
13.175,0.0656,-0.3947,-1.0028,0.7493,-2.1873,0.1499,0.143,-0.313,-0.4805,,Lturn
13.195,0.0223,-0.3942,-0.9823,0.7493,-2.1873,0.1499,0.143,-0.313,-0.4805,,Lturn
13.216,0.0948,-0.4445,-0.8847,0.7493,-2.1873,0.1499,0.143,-0.313,-0.4805,,Lturn
13.232,0.0948,-0.4445,-0.8847,0.7493,-2.1873,0.1499,0.143,-0.313,-0.4805,,Lturn
13.234,0.0689,-0.4592,-0.8104,0.7493,-2.1873,0.1499,0.143,-0.313,-0.4805,,Lturn
13.256,0.0127,-0.4605,-0.7608,0.7493,-2.1873,0.1499,0.143,-0.313,-0.4805,,Lturn
13.274,0.0127,-0.4605,-0.7608,0.8903,-3.1221,0.5017,0.143,-0.313,-0.4805,,Lturn
13.275,0.0557,-0.4483,-0.935,0.8903,-3.1221,0.5017,0.143,-0.313,-0.4805,,Lturn
13.276,0.0557,-0.4483,-0.935,0.8903,-3.1221,0.5017,0.0921,-0.4843,-0.8109,,Lturn
13.295,0.098,-0.3975,-1.1179,0.8903,-3.1221,0.5017,0.0921,-0.4843,-0.8109,,Lturn
13.315,0.0265,-0.2964,-1.2392,0.8903,-3.1221,0.5017,0.0921,-0.4843,-0.8109,,Lturn
13.334,0.0385,-0.1935,-1.3948,0.8903,-3.1221,0.5017,0.0921,-0.4843,-0.8109,,Lturn
13.343,0.0385,-0.1935,-1.3948,0.8903,-3.1221,0.5017,0.0921,-0.4843,-0.8109,,Lturn
13.354,-0.0129,-0.1581,-1.3115,0.8903,-3.1221,0.5017,0.0921,-0.4843,-0.8109,,Lturn
13.373,-0.0165,-0.1957,-1.0055,0.8903,-3.1221,0.5017,0.0921,-0.4843,-0.8109,,Lturn
13.393,0.0805,-0.2817,-0.8015,0.8903,-3.1221,0.5017,0.0921,-0.4843,-0.8109,,Lturn
13.413,0.1138,-0.3268,-0.9012,0.8903,-3.1221,0.5017,0.0921,-0.4843,-0.8109,,Lturn
13.433,0.083,-0.2917,-1.1511,0.8903,-3.1221,0.5017,0.0921,-0.4843,-0.8109,,Lturn
13.434,0.083,-0.2917,-1.1511,0.8903,-3.1221,0.5017,0.0921,-0.4843,-0.8109,,Lturn
13.453,0.0898,-0.277,-1.2208,0.8903,-3.1221,0.5017,0.0921,-0.4843,-0.8109,,Lturn
13.473,0.0898,-0.277,-1.2208,0.7537,-1.3938,-1.1765,0.0921,-0.4843,-0.8109,,Lturn
13.473,0.0945,-0.3188,-1.128,0.7537,-1.3938,-1.1765,0.0921,-0.4843,-0.8109,,Lturn
13.474,0.0945,-0.3188,-1.128,0.7537,-1.3938,-1.1765,0.0288,-0.2589,-0.7349,,Lturn
13.492,0.0951,-0.3803,-0.9252,0.7537,-1.3938,-1.1765,0.0288,-0.2589,-0.7349,,Lturn
13.513,0.14,-0.4134,-0.843,0.7537,-1.3938,-1.1765,0.0288,-0.2589,-0.7349,,Lturn
13.533,0.1163,-0.3979,-0.8128,0.7537,-1.3938,-1.1765,0.0288,-0.2589,-0.7349,,Lturn
13.545,0.1163,-0.3979,-0.8128,0.7537,-1.3938,-1.1765,0.0288,-0.2589,-0.7349,,Lturn
13.553,0.1329,-0.3534,-0.8777,0.7537,-1.3938,-1.1765,0.0288,-0.2589,-0.7349,,Lturn
13.573,0.1522,-0.3038,-0.9338,0.7537,-1.3938,-1.1765,0.0288,-0.2589,-0.7349,,Lturn
13.592,0.1608,-0.2799,-0.9198,0.7537,-1.3938,-1.1765,0.0288,-0.2589,-0.7349,,Lturn
13.613,0.2353,-0.2922,-0.9675,0.7537,-1.3938,-1.1765,0.0288,-0.2589,-0.7349,,Lturn
13.632,0.2533,-0.2953,-1.0463,0.7537,-1.3938,-1.1765,0.0288,-0.2589,-0.7349,,Lturn
13.634,0.2533,-0.2953,-1.0463,0.7537,-1.3938,-1.1765,0.0288,-0.2589,-0.7349,,Lturn
13.652,0.1708,-0.2887,-0.9947,0.7537,-1.3938,-1.1765,0.0288,-0.2589,-0.7349,,Lturn
13.672,0.2004,-0.29,-0.9653,0.7537,-1.3938,-1.1765,0.0288,-0.2589,-0.7349,,Lturn
13.673,0.2004,-0.29,-0.9653,0.7537,-1.3938,-1.1765,0.1622,0.359,-0.3443,,Lturn
13.673,0.2004,-0.29,-0.9653,0.9465,-1.5457,0.6692,0.1622,0.359,-0.3443,,Lturn
13.692,0.2012,-0.282,-0.9417,0.9465,-1.5457,0.6692,0.1622,0.359,-0.3443,,Lturn
13.712,0.1708,-0.2804,-0.8861,0.9465,-1.5457,0.6692,0.1622,0.359,-0.3443,,Lturn
13.732,0.2358,-0.311,-0.8662,0.9465,-1.5457,0.6692,0.1622,0.359,-0.3443,,Lturn
13.746,0.2358,-0.311,-0.8662,0.9465,-1.5457,0.6692,0.1622,0.359,-0.3443,,Lturn
13.752,0.2429,-0.3204,-0.8627,0.9465,-1.5457,0.6692,0.1622,0.359,-0.3443,,Lturn
13.772,0.2377,-0.2925,-1.0085,0.9465,-1.5457,0.6692,0.1622,0.359,-0.3443,,Lturn
13.792,0.2426,-0.2419,-1.1959,0.9465,-1.5457,0.6692,0.1622,0.359,-0.3443,,Lturn
13.811,0.2188,-0.1884,-1.2779,0.9465,-1.5457,0.6692,0.1622,0.359,-0.3443,,Lturn
13.831,0.1527,-0.1348,-1.2846,0.9465,-1.5457,0.6692,0.1622,0.359,-0.3443,,Lturn
13.837,0.1527,-0.1348,-1.2846,0.9465,-1.5457,0.6692,0.1622,0.359,-0.3443,,Lturn
13.851,0.0974,-0.1047,-1.2682,0.9465,-1.5457,0.6692,0.1622,0.359,-0.3443,,Lturn
13.871,0.0974,-0.1047,-1.2682,1.1111,-1.2426,-0.6214,0.1622,0.359,-0.3443,,Lturn
13.872,0.0627,-0.1166,-1.1494,1.1111,-1.2426,-0.6214,0.1622,0.359,-0.3443,,Lturn
13.872,0.0627,-0.1166,-1.1494,1.1111,-1.2426,-0.6214,-0.3579,-0.0729,-0.4438,,Lturn
13.891,0.1014,-0.1673,-0.9986,1.1111,-1.2426,-0.6214,-0.3579,-0.0729,-0.4438,,Lturn
13.911,0.1881,-0.242,-0.9172,1.1111,-1.2426,-0.6214,-0.3579,-0.0729,-0.4438,,Lturn
13.931,0.1885,-0.2263,-0.9797,1.1111,-1.2426,-0.6214,-0.3579,-0.0729,-0.4438,,Lturn
13.95,0.1641,-0.2145,-0.9959,1.1111,-1.2426,-0.6214,-0.3579,-0.0729,-0.4438,,Lturn
13.97,0.147,-0.2153,-0.9314,1.1111,-1.2426,-0.6214,-0.3579,-0.0729,-0.4438,,Lturn
13.99,0.1157,-0.2001,-0.883,1.1111,-1.2426,-0.6214,-0.3579,-0.0729,-0.4438,,Lturn
14.01,0.1201,-0.2021,-0.8693,1.1111,-1.2426,-0.6214,-0.3579,-0.0729,-0.4438,,acc
14.03,0.1554,-0.2289,-0.8954,1.1111,-1.2426,-0.6214,-0.3579,-0.0729,-0.4438,,acc
14.038,0.1554,-0.2289,-0.8954,1.1111,-1.2426,-0.6214,-0.3579,-0.0729,-0.4438,,acc
14.05,0.14,-0.1984,-1.0424,1.1111,-1.2426,-0.6214,-0.3579,-0.0729,-0.4438,,acc
14.07,0.14,-0.1984,-1.0424,0.4055,-0.9902,0.3932,-0.3579,-0.0729,-0.4438,,acc
14.071,0.0943,-0.1655,-1.1516,0.4055,-0.9902,0.3932,-0.3579,-0.0729,-0.4438,,acc
14.071,0.0943,-0.1655,-1.1516,0.4055,-0.9902,0.3932,0.0184,0.0991,-0.2755,,acc
14.09,0.0982,-0.1724,-1.1026,0.4055,-0.9902,0.3932,0.0184,0.0991,-0.2755,,acc
14.11,0.1618,-0.2122,-0.9671,0.4055,-0.9902,0.3932,0.0184,0.0991,-0.2755,,acc
14.129,0.1828,-0.2336,-0.8646,0.4055,-0.9902,0.3932,0.0184,0.0991,-0.2755,,acc
14.15,0.2018,-0.2508,-0.8282,0.4055,-0.9902,0.3932,0.0184,0.0991,-0.2755,,acc
14.15,0.2018,-0.2508,-0.8282,0.4055,-0.9902,0.3932,0.0184,0.0991,-0.2755,,acc
14.169,0.193,-0.2281,-0.8468,0.4055,-0.9902,0.3932,0.0184,0.0991,-0.2755,,acc
14.189,0.1795,-0.2087,-0.902,0.4055,-0.9902,0.3932,0.0184,0.0991,-0.2755,,acc
14.209,0.1585,-0.1965,-0.929,0.4055,-0.9902,0.3932,0.0184,0.0991,-0.2755,,acc
14.229,0.1466,-0.2027,-0.9369,0.4055,-0.9902,0.3932,0.0184,0.0991,-0.2755,,acc
14.239,0.1466,-0.2027,-0.9369,0.4055,-0.9902,0.3932,0.0184,0.0991,-0.2755,,acc
14.249,0.1533,-0.1906,-1.0097,0.4055,-0.9902,0.3932,0.0184,0.0991,-0.2755,,acc
14.269,0.1421,-0.1583,-1.1368,0.4055,-0.9902,0.3932,0.0184,0.0991,-0.2755,,acc
14.269,0.1421,-0.1583,-1.1368,0.4055,-0.9902,0.3932,0.0252,-0.1187,-0.4481,,acc
14.27,0.1421,-0.1583,-1.1368,0.7098,-0.967,0.5202,0.0252,-0.1187,-0.4481,,acc
14.288,0.1227,-0.1085,-1.2177,0.7098,-0.967,0.5202,0.0252,-0.1187,-0.4481,,acc
14.309,0.1042,-0.0708,-1.2069,0.7098,-0.967,0.5202,0.0252,-0.1187,-0.4481,,acc
14.328,0.0667,-0.0775,-1.1105,0.7098,-0.967,0.5202,0.0252,-0.1187,-0.4481,,acc
14.348,0.0822,-0.0683,-1.0358,0.7098,-0.967,0.5202,0.0252,-0.1187,-0.4481,,acc
14.368,0.0962,-0.0187,-1.148,0.7098,-0.967,0.5202,0.0252,-0.1187,-0.4481,,acc
14.388,0.0831,0.0515,-1.2285,0.7098,-0.967,0.5202,0.0252,-0.1187,-0.4481,,acc
14.388,0.0831,0.0515,-1.2285,0.7098,-0.967,0.5202,0.0252,-0.1187,-0.4481,,acc
14.408,0.1535,0.0182,-0.9999,0.7098,-0.967,0.5202,0.0252,-0.1187,-0.4481,,acc
14.428,0.2138,0.0364,-0.9725,0.7098,-0.967,0.5202,0.0252,-0.1187,-0.4481,,acc
14.441,0.2138,0.0364,-0.9725,0.7098,-0.967,0.5202,0.0252,-0.1187,-0.4481,,acc
14.448,0.2253,0.0568,-1.0637,0.7098,-0.967,0.5202,0.0252,-0.1187,-0.4481,,acc
14.467,0.1982,0.0304,-1.0188,0.7098,-0.967,0.5202,0.0252,-0.1187,-0.4481,,acc
14.468,0.1982,0.0304,-1.0188,0.7098,-0.967,0.5202,-0.1551,-0.0667,-0.5092,,acc
14.468,0.1982,0.0304,-1.0188,0.4612,0.4826,-0.8468,-0.1551,-0.0667,-0.5092,,acc
14.487,0.2192,-0.0082,-0.9923,0.4612,0.4826,-0.8468,-0.1551,-0.0667,-0.5092,,acc
14.507,0.2497,-0.083,-0.9804,0.4612,0.4826,-0.8468,-0.1551,-0.0667,-0.5092,,acc
14.527,0.2255,-0.0865,-1.0242,0.4612,0.4826,-0.8468,-0.1551,-0.0667,-0.5092,,acc
14.547,0.2041,-0.0855,-1.047,0.4612,0.4826,-0.8468,-0.1551,-0.0667,-0.5092,,acc
14.567,0.2414,-0.1002,-0.9815,0.4612,0.4826,-0.8468,-0.1551,-0.0667,-0.5092,,acc
14.587,0.2232,-0.1236,-0.8905,0.4612,0.4826,-0.8468,-0.1551,-0.0667,-0.5092,,acc
14.607,0.1809,-0.097,-1.0054,0.4612,0.4826,-0.8468,-0.1551,-0.0667,-0.5092,,acc
14.627,0.1927,-0.1003,-1.1116,0.4612,0.4826,-0.8468,-0.1551,-0.0667,-0.5092,,acc
14.642,0.1927,-0.1003,-1.1116,0.4612,0.4826,-0.8468,-0.1551,-0.0667,-0.5092,,acc
14.646,0.1869,-0.1261,-1.0052,0.4612,0.4826,-0.8468,-0.1551,-0.0667,-0.5092,,acc
14.667,0.1288,-0.1271,-0.9181,0.4612,0.4826,-0.8468,-0.1551,-0.0667,-0.5092,,acc
14.667,0.1288,-0.1271,-0.9181,0.4612,0.4826,-0.8468,0.0595,-0.1278,-0.4477,,acc
14.667,0.1288,-0.1271,-0.9181,1.284,-0.2277,0.1806,0.0595,-0.1278,-0.4477,,acc
14.686,0.033,-0.0831,-0.9896,1.284,-0.2277,0.1806,0.0595,-0.1278,-0.4477,,acc
14.706,-0.0319,-0.0414,-1.1146,1.284,-0.2277,0.1806,0.0595,-0.1278,-0.4477,,acc
14.726,0.0417,-0.0645,-1.0956,1.284,-0.2277,0.1806,0.0595,-0.1278,-0.4477,,acc
14.746,0.1408,-0.0908,-1.119,1.284,-0.2277,0.1806,0.0595,-0.1278,-0.4477,,acc
14.766,0.1207,-0.0807,-1.1301,1.284,-0.2277,0.1806,0.0595,-0.1278,-0.4477,,acc
14.786,0.1153,-0.0887,-1.0907,1.284,-0.2277,0.1806,0.0595,-0.1278,-0.4477,,acc
14.805,0.1166,-0.0638,-1.0684,1.284,-0.2277,0.1806,0.0595,-0.1278,-0.4477,,acc
14.829,0.1152,-0.059,-1.0893,1.284,-0.2277,0.1806,0.0595,-0.1278,-0.4477,,acc
14.843,0.1152,-0.059,-1.0893,1.284,-0.2277,0.1806,0.0595,-0.1278,-0.4477,,acc
14.844,0.0709,-0.0413,-1.0611,1.284,-0.2277,0.1806,0.0595,-0.1278,-0.4477,,acc
14.865,0.0601,-0.0361,-1.062,1.284,-0.2277,0.1806,0.0595,-0.1278,-0.4477,,acc
14.865,0.0601,-0.0361,-1.062,1.284,-0.2277,0.1806,0.022,-0.2177,-0.3697,,acc
14.865,0.0601,-0.0361,-1.062,0.398,0.0542,-0.6134,0.022,-0.2177,-0.3697,,acc
14.884,0.0908,-0.049,-1.1413,0.398,0.0542,-0.6134,0.022,-0.2177,-0.3697,,acc
14.905,0.0719,-0.0583,-1.132,0.398,0.0542,-0.6134,0.022,-0.2177,-0.3697,,acc
14.924,0.0831,-0.0833,-1.0486,0.398,0.0542,-0.6134,0.022,-0.2177,-0.3697,,acc
14.944,0.0767,-0.0976,-0.9955,0.398,0.0542,-0.6134,0.022,-0.2177,-0.3697,,acc
14.964,-0.0035,-0.0842,-0.9059,0.398,0.0542,-0.6134,0.022,-0.2177,-0.3697,,acc
14.984,0.0231,-0.1185,-0.8584,0.398,0.0542,-0.6134,0.022,-0.2177,-0.3697,,acc
15.004,0.15,-0.1613,-0.9321,0.398,0.0542,-0.6134,0.022,-0.2177,-0.3697,,acc
15.024,0.1604,-0.1284,-1.0535,0.398,0.0542,-0.6134,0.022,-0.2177,-0.3697,,acc
15.044,0.1178,-0.0814,-1.1378,0.398,0.0542,-0.6134,0.022,-0.2177,-0.3697,,acc
15.044,0.1178,-0.0814,-1.1378,0.398,0.0542,-0.6134,0.022,-0.2177,-0.3697,,acc
15.064,0.0874,-0.0824,-1.0918,0.398,0.0542,-0.6134,0.022,-0.2177,-0.3697,,acc
15.065,0.0874,-0.0824,-1.0918,0.398,0.0542,-0.6134,0.1172,-0.0407,-0.3989,,acc
15.065,0.0874,-0.0824,-1.0918,0.4662,-0.0268,-0.1104,0.1172,-0.0407,-0.3989,,acc
15.084,0.0769,-0.0976,-0.9825,0.4662,-0.0268,-0.1104,0.1172,-0.0407,-0.3989,,acc
15.103,0.0942,-0.1316,-0.8959,0.4662,-0.0268,-0.1104,0.1172,-0.0407,-0.3989,,acc
15.124,0.0868,-0.0957,-0.9319,0.4662,-0.0268,-0.1104,0.1172,-0.0407,-0.3989,,acc
15.143,0.0899,-0.0298,-0.9418,0.4662,-0.0268,-0.1104,0.1172,-0.0407,-0.3989,,acc
15.156,0.0899,-0.0298,-0.9418,0.4662,-0.0268,-0.1104,0.1172,-0.0407,-0.3989,,acc
15.163,0.0803,-0.0462,-0.7581,0.4662,-0.0268,-0.1104,0.1172,-0.0407,-0.3989,,acc
15.183,0.1243,-0.1043,-0.6204,0.4662,-0.0268,-0.1104,0.1172,-0.0407,-0.3989,,acc
15.203,0.1481,-0.1083,-0.651,0.4662,-0.0268,-0.1104,0.1172,-0.0407,-0.3989,,acc
15.223,0.1482,-0.0665,-0.8045,0.4662,-0.0268,-0.1104,0.1172,-0.0407,-0.3989,,acc
15.243,0.1772,-0.0662,-0.9395,0.4662,-0.0268,-0.1104,0.1172,-0.0407,-0.3989,,acc
15.247,0.1772,-0.0662,-0.9395,0.4662,-0.0268,-0.1104,0.1172,-0.0407,-0.3989,,acc
15.263,0.2153,-0.0727,-1.1193,0.4662,-0.0268,-0.1104,0.1172,-0.0407,-0.3989,,acc
15.264,0.2153,-0.0727,-1.1193,0.4662,-0.0268,-0.1104,0.094,0.1947,-0.2336,,acc
15.264,0.2153,-0.0727,-1.1193,0.3906,0.2449,1.3936,0.094,0.1947,-0.2336,,acc
15.282,0.203,-0.0565,-1.2644,0.3906,0.2449,1.3936,0.094,0.1947,-0.2336,,acc
15.303,0.1287,-0.0463,-1.3386,0.3906,0.2449,1.3936,0.094,0.1947,-0.2336,,acc
15.322,0.0258,-0.0496,-1.3454,0.3906,0.2449,1.3936,0.094,0.1947,-0.2336,,acc
15.342,0.0317,-0.0543,-1.2152,0.3906,0.2449,1.3936,0.094,0.1947,-0.2336,,acc
15.357,0.0317,-0.0543,-1.2152,0.3906,0.2449,1.3936,0.094,0.1947,-0.2336,,acc
15.362,0.0551,-0.1155,-1.0352,0.3906,0.2449,1.3936,0.094,0.1947,-0.2336,,acc
15.382,0.0146,-0.1013,-1.0289,0.3906,0.2449,1.3936,0.094,0.1947,-0.2336,,acc
15.402,0.0419,-0.0864,-1.0113,0.3906,0.2449,1.3936,0.094,0.1947,-0.2336,,acc
15.422,0.0621,-0.0904,-0.9168,0.3906,0.2449,1.3936,0.094,0.1947,-0.2336,,acc
15.441,0.0863,-0.0587,-0.9721,0.3906,0.2449,1.3936,0.094,0.1947,-0.2336,,acc
15.448,0.0863,-0.0587,-0.9721,0.3906,0.2449,1.3936,0.094,0.1947,-0.2336,,acc
15.462,0.0863,-0.0587,-0.9721,0.177,0.0474,-1.0382,0.094,0.1947,-0.2336,,acc
15.462,0.1421,-0.0173,-1.1019,0.177,0.0474,-1.0382,0.094,0.1947,-0.2336,,acc
15.463,0.1421,-0.0173,-1.1019,0.177,0.0474,-1.0382,-0.1493,-0.1455,-0.273,,acc
15.481,0.1226,0.0016,-1.1119,0.177,0.0474,-1.0382,-0.1493,-0.1455,-0.273,,acc
15.501,0.136,-0.0234,-1.0666,0.177,0.0474,-1.0382,-0.1493,-0.1455,-0.273,,acc
15.521,0.1872,-0.0621,-0.9968,0.177,0.0474,-1.0382,-0.1493,-0.1455,-0.273,,acc
15.541,0.0896,-0.0021,-1.0878,0.177,0.0474,-1.0382,-0.1493,-0.1455,-0.273,,acc
15.561,0.0903,0.0505,-1.2985,0.177,0.0474,-1.0382,-0.1493,-0.1455,-0.273,,acc
15.581,0.108,0.0321,-1.0496,0.177,0.0474,-1.0382,-0.1493,-0.1455,-0.273,,acc
15.6,0.0274,-0.0324,-0.7764,0.177,0.0474,-1.0382,-0.1493,-0.1455,-0.273,,acc
15.62,0.078,-0.0611,-0.8345,0.177,0.0474,-1.0382,-0.1493,-0.1455,-0.273,,acc
15.64,0.1368,-0.0667,-1.0021,0.177,0.0474,-1.0382,-0.1493,-0.1455,-0.273,,acc
15.649,0.1368,-0.0667,-1.0021,0.177,0.0474,-1.0382,-0.1493,-0.1455,-0.273,,acc
15.661,0.1368,-0.0667,-1.0021,0.4265,0.4998,0.0386,-0.1493,-0.1455,-0.273,,acc
15.661,0.1158,-0.1261,-0.8958,0.4265,0.4998,0.0386,-0.1493,-0.1455,-0.273,,acc
15.661,0.1158,-0.1261,-0.8958,0.4265,0.4998,0.0386,0.0629,-0.004,-0.212,,acc
15.68,0.1773,-0.1614,-0.9318,0.4265,0.4998,0.0386,0.0629,-0.004,-0.212,,acc
15.7,0.1265,-0.0495,-1.006,0.4265,0.4998,0.0386,0.0629,-0.004,-0.212,,acc
15.72,0.0039,0.013,-0.9346,0.4265,0.4998,0.0386,0.0629,-0.004,-0.212,,acc
15.74,0.0901,-0.0765,-0.7869,0.4265,0.4998,0.0386,0.0629,-0.004,-0.212,,acc
15.76,0.1599,-0.1935,-0.7916,0.4265,0.4998,0.0386,0.0629,-0.004,-0.212,,acc
15.76,0.1599,-0.1935,-0.7916,0.4265,0.4998,0.0386,0.0629,-0.004,-0.212,,acc
15.779,0.2276,-0.2169,-1.0482,0.4265,0.4998,0.0386,0.0629,-0.004,-0.212,,acc
15.799,0.129,-0.1013,-1.2371,0.4265,0.4998,0.0386,0.0629,-0.004,-0.212,,acc
15.819,0.0571,-0.0377,-1.1612,0.4265,0.4998,0.0386,0.0629,-0.004,-0.212,,acc
15.839,0.1078,-0.075,-0.9825,0.4265,0.4998,0.0386,0.0629,-0.004,-0.212,,acc
15.851,0.1078,-0.075,-0.9825,0.4265,0.4998,0.0386,0.0629,-0.004,-0.212,,acc
15.859,0.1431,-0.0986,-0.7912,0.4265,0.4998,0.0386,0.0629,-0.004,-0.212,,acc
15.86,0.1431,-0.0986,-0.7912,0.4265,0.4998,0.0386,0.2917,0.1025,-0.1385,,acc
15.86,0.1431,-0.0986,-0.7912,0.3086,0.3434,0.3813,0.2917,0.1025,-0.1385,,acc
15.879,0.1911,-0.1886,-0.6244,0.3086,0.3434,0.3813,0.2917,0.1025,-0.1385,,acc
15.9,0.1489,-0.2482,-0.6435,0.3086,0.3434,0.3813,0.2917,0.1025,-0.1385,,acc
15.918,0.1519,-0.1685,-0.9735,0.3086,0.3434,0.3813,0.2917,0.1025,-0.1385,,acc
15.938,0.1101,-0.0745,-1.1008,0.3086,0.3434,0.3813,0.2917,0.1025,-0.1385,,acc
15.958,0.0813,-0.1503,-0.8417,0.3086,0.3434,0.3813,0.2917,0.1025,-0.1385,,acc
15.978,0.2045,-0.2815,-0.8203,0.3086,0.3434,0.3813,0.2917,0.1025,-0.1385,,acc
15.998,0.2596,-0.2399,-1.186,0.3086,0.3434,0.3813,0.2917,0.1025,-0.1385,,acc
15.998,0.2596,-0.2399,-1.186,0.3086,0.3434,0.3813,0.2917,0.1025,-0.1385,,acc
16.018,0.2194,-0.1853,-1.4065,0.3086,0.3434,0.3813,0.2917,0.1025,-0.1385,,acc
16.038,0.2226,-0.172,-1.3021,0.3086,0.3434,0.3813,0.2917,0.1025,-0.1385,,acc
16.052,0.2226,-0.172,-1.3021,0.3086,0.3434,0.3813,0.2917,0.1025,-0.1385,,acc
16.058,0.1773,-0.1332,-1.213,0.3086,0.3434,0.3813,0.2917,0.1025,-0.1385,,acc
16.059,0.1773,-0.1332,-1.213,0.3086,0.3434,0.3813,-0.0858,-0.525,-0.4038,,acc
16.059,0.1773,-0.1332,-1.213,1.6848,-0.6569,0.0142,-0.0858,-0.525,-0.4038,,acc
16.078,0.0765,-0.0982,-1.1207,1.6848,-0.6569,0.0142,-0.0858,-0.525,-0.4038,,acc
16.097,0.0582,-0.1078,-0.9918,1.6848,-0.6569,0.0142,-0.0858,-0.525,-0.4038,,acc
16.117,0.1472,-0.14,-0.922,1.6848,-0.6569,0.0142,-0.0858,-0.525,-0.4038,,acc
16.137,0.1564,-0.1085,-0.9586,1.6848,-0.6569,0.0142,-0.0858,-0.525,-0.4038,,acc
16.157,0.1268,-0.0953,-0.9658,1.6848,-0.6569,0.0142,-0.0858,-0.525,-0.4038,,acc
16.163,0.1268,-0.0953,-0.9658,1.6848,-0.6569,0.0142,-0.0858,-0.525,-0.4038,,acc
16.177,0.125,-0.08,-1.0204,1.6848,-0.6569,0.0142,-0.0858,-0.525,-0.4038,,acc
16.197,0.0848,-0.0363,-1.1728,1.6848,-0.6569,0.0142,-0.0858,-0.525,-0.4038,,acc
16.217,0.1306,-0.1244,-1.0701,1.6848,-0.6569,0.0142,-0.0858,-0.525,-0.4038,,acc
16.237,0.1466,-0.187,-1.0173,1.6848,-0.6569,0.0142,-0.0858,-0.525,-0.4038,,acc
16.254,0.1466,-0.187,-1.0173,1.6848,-0.6569,0.0142,-0.0858,-0.525,-0.4038,,acc
16.258,0.1466,-0.187,-1.0173,0.8989,0.1386,-0.293,-0.0858,-0.525,-0.4038,,acc
16.258,0.1316,-0.1442,-1.1872,0.8989,0.1386,-0.293,-0.0858,-0.525,-0.4038,,acc
16.258,0.1316,-0.1442,-1.1872,0.8989,0.1386,-0.293,0.0514,0.0196,-0.5499,,acc
16.277,0.1365,-0.1459,-1.2315,0.8989,0.1386,-0.293,0.0514,0.0196,-0.5499,,acc
16.297,0.1792,-0.1874,-1.0891,0.8989,0.1386,-0.293,0.0514,0.0196,-0.5499,,acc
16.317,0.2617,-0.2004,-1.121,0.8989,0.1386,-0.293,0.0514,0.0196,-0.5499,,acc
16.337,0.2363,-0.1587,-1.0811,0.8989,0.1386,-0.293,0.0514,0.0196,-0.5499,,acc
16.358,0.1993,-0.1651,-0.9273,0.8989,0.1386,-0.293,0.0514,0.0196,-0.5499,,acc
16.365,0.1993,-0.1651,-0.9273,0.8989,0.1386,-0.293,0.0514,0.0196,-0.5499,,acc
16.376,0.1565,-0.1594,-0.7857,0.8989,0.1386,-0.293,0.0514,0.0196,-0.5499,,acc
16.396,0.114,-0.135,-0.6901,0.8989,0.1386,-0.293,0.0514,0.0196,-0.5499,,acc
16.416,0.1326,-0.1655,-0.668,0.8989,0.1386,-0.293,0.0514,0.0196,-0.5499,,acc
16.436,0.1693,-0.2156,-0.804,0.8989,0.1386,-0.293,0.0514,0.0196,-0.5499,,acc
16.456,0.1693,-0.2156,-0.804,0.4243,-0.0904,0.5539,0.0514,0.0196,-0.5499,,acc
16.457,0.155,-0.1999,-1.0028,0.4243,-0.0904,0.5539,0.0514,0.0196,-0.5499,,acc
16.457,0.155,-0.1999,-1.0028,0.4243,-0.0904,0.5539,0.2133,0.4515,-0.4063,,acc
16.457,0.155,-0.1999,-1.0028,0.4243,-0.0904,0.5539,0.2133,0.4515,-0.4063,,acc
16.476,0.1597,-0.2128,-1.1214,0.4243,-0.0904,0.5539,0.2133,0.4515,-0.4063,,acc
16.496,0.1906,-0.2205,-1.1247,0.4243,-0.0904,0.5539,0.2133,0.4515,-0.4063,,acc
16.515,0.2222,-0.2514,-1.0471,0.4243,-0.0904,0.5539,0.2133,0.4515,-0.4063,,acc
16.535,0.2329,-0.2645,-0.9826,0.4243,-0.0904,0.5539,0.2133,0.4515,-0.4063,,acc
16.555,0.2148,-0.255,-0.9609,0.4243,-0.0904,0.5539,0.2133,0.4515,-0.4063,,acc
16.575,0.2117,-0.2396,-0.9988,0.4243,-0.0904,0.5539,0.2133,0.4515,-0.4063,,acc
16.595,0.193,-0.2234,-0.9925,0.4243,-0.0904,0.5539,0.2133,0.4515,-0.4063,,acc
16.615,0.1907,-0.2142,-0.9536,0.4243,-0.0904,0.5539,0.2133,0.4515,-0.4063,,acc
16.634,0.2315,-0.1894,-1.0273,0.4243,-0.0904,0.5539,0.2133,0.4515,-0.4063,,acc
16.655,0.2315,-0.1894,-1.0273,0.591,-0.559,-0.2969,0.2133,0.4515,-0.4063,,acc
16.656,0.2183,-0.1812,-1.057,0.591,-0.559,-0.2969,0.2133,0.4515,-0.4063,,acc
16.656,0.2183,-0.1812,-1.057,0.591,-0.559,-0.2969,0.0262,0.0379,-0.1449,,acc
16.657,0.2183,-0.1812,-1.057,0.591,-0.559,-0.2969,0.0262,0.0379,-0.1449,,acc
16.674,0.1477,-0.2299,-0.9968,0.591,-0.559,-0.2969,0.0262,0.0379,-0.1449,,acc
16.694,0.1778,-0.3017,-1.0056,0.591,-0.559,-0.2969,0.0262,0.0379,-0.1449,,acc
16.714,0.1797,-0.2608,-1.1047,0.591,-0.559,-0.2969,0.0262,0.0379,-0.1449,,acc
16.734,0.2057,-0.205,-1.1843,0.591,-0.559,-0.2969,0.0262,0.0379,-0.1449,,acc
16.754,0.2369,-0.1677,-1.1438,0.591,-0.559,-0.2969,0.0262,0.0379,-0.1449,,acc
16.767,0.2369,-0.1677,-1.1438,0.591,-0.559,-0.2969,0.0262,0.0379,-0.1449,,acc
16.774,0.2511,-0.1676,-1.0549,0.591,-0.559,-0.2969,0.0262,0.0379,-0.1449,,acc
16.793,0.2129,-0.1407,-1.0032,0.591,-0.559,-0.2969,0.0262,0.0379,-0.1449,,acc
16.814,0.1456,-0.1087,-0.9797,0.591,-0.559,-0.2969,0.0262,0.0379,-0.1449,,acc
16.833,0.1004,-0.0991,-0.9275,0.591,-0.559,-0.2969,0.0262,0.0379,-0.1449,,acc
16.853,0.1004,-0.0991,-0.9275,0.0702,-0.4999,-0.2378,0.0262,0.0379,-0.1449,,acc
16.854,0.0649,-0.1086,-0.8522,0.0702,-0.4999,-0.2378,0.0262,0.0379,-0.1449,,acc
16.854,0.0649,-0.1086,-0.8522,0.0702,-0.4999,-0.2378,-0.1597,0.0398,-0.3595,,acc
16.858,0.0649,-0.1086,-0.8522,0.0702,-0.4999,-0.2378,-0.1597,0.0398,-0.3595,,acc
16.873,0.1359,-0.1378,-0.9282,0.0702,-0.4999,-0.2378,-0.1597,0.0398,-0.3595,,acc
16.893,0.232,-0.1364,-1.0791,0.0702,-0.4999,-0.2378,-0.1597,0.0398,-0.3595,,acc
16.913,0.2726,-0.1455,-1.138,0.0702,-0.4999,-0.2378,-0.1597,0.0398,-0.3595,,acc
16.933,0.2899,-0.1682,-1.0953,0.0702,-0.4999,-0.2378,-0.1597,0.0398,-0.3595,,acc
16.953,0.2482,-0.1548,-1.0422,0.0702,-0.4999,-0.2378,-0.1597,0.0398,-0.3595,,acc
16.969,0.2482,-0.1548,-1.0422,0.0702,-0.4999,-0.2378,-0.1597,0.0398,-0.3595,,acc
16.972,0.1933,-0.1298,-1.0121,0.0702,-0.4999,-0.2378,-0.1597,0.0398,-0.3595,,acc
16.992,0.1618,-0.1201,-0.9097,0.0702,-0.4999,-0.2378,-0.1597,0.0398,-0.3595,,acc
17.012,0.1613,-0.1261,-0.887,0.0702,-0.4999,-0.2378,-0.1597,0.0398,-0.3595,,
17.032,0.1709,-0.1002,-0.9625,0.0702,-0.4999,-0.2378,-0.1597,0.0398,-0.3595,,
17.052,0.1709,-0.1002,-0.9625,0.257,-0.1281,-0.1064,-0.1597,0.0398,-0.3595,,
17.053,0.2199,-0.0832,-1.0569,0.257,-0.1281,-0.1064,-0.1597,0.0398,-0.3595,,
17.053,0.2199,-0.0832,-1.0569,0.257,-0.1281,-0.1064,-0.0289,0.0592,-0.1694,,
17.06,0.2199,-0.0832,-1.0569,0.257,-0.1281,-0.1064,-0.0289,0.0592,-0.1694,,
17.072,0.2712,-0.1046,-1.0497,0.257,-0.1281,-0.1064,-0.0289,0.0592,-0.1694,,
17.092,0.3165,-0.1478,-1.0685,0.257,-0.1281,-0.1064,-0.0289,0.0592,-0.1694,,
17.111,0.2508,-0.1543,-1.0481,0.257,-0.1281,-0.1064,-0.0289,0.0592,-0.1694,,
17.132,0.2038,-0.1557,-1.044,0.257,-0.1281,-0.1064,-0.0289,0.0592,-0.1694,,
17.151,0.121,-0.1232,-1.0106,0.257,-0.1281,-0.1064,-0.0289,0.0592,-0.1694,,
17.17,0.121,-0.1232,-1.0106,0.257,-0.1281,-0.1064,-0.0289,0.0592,-0.1694,,
17.171,0.0978,-0.1119,-0.9409,0.257,-0.1281,-0.1064,-0.0289,0.0592,-0.1694,,
17.191,0.1873,-0.1443,-0.9197,0.257,-0.1281,-0.1064,-0.0289,0.0592,-0.1694,,
17.211,0.268,-0.1896,-0.9556,0.257,-0.1281,-0.1064,-0.0289,0.0592,-0.1694,,
17.231,0.3254,-0.1583,-1.1269,0.257,-0.1281,-0.1064,-0.0289,0.0592,-0.1694,,
17.251,0.3254,-0.1583,-1.1269,0.4328,-0.3585,-0.2713,-0.0289,0.0592,-0.1694,,
17.251,0.1918,-0.0648,-1.1612,0.4328,-0.3585,-0.2713,-0.0289,0.0592,-0.1694,,
17.252,0.1918,-0.0648,-1.1612,0.4328,-0.3585,-0.2713,-0.0668,-0.0479,-0.1909,,
17.261,0.1918,-0.0648,-1.1612,0.4328,-0.3585,-0.2713,-0.0668,-0.0479,-0.1909,,
17.27,0.1863,-0.0912,-1.0117,0.4328,-0.3585,-0.2713,-0.0668,-0.0479,-0.1909,,
17.29,0.2006,-0.1139,-0.8821,0.4328,-0.3585,-0.2713,-0.0668,-0.0479,-0.1909,,
17.31,0.1863,-0.0783,-0.9592,0.4328,-0.3585,-0.2713,-0.0668,-0.0479,-0.1909,,
17.33,0.1366,-0.032,-1.0211,0.4328,-0.3585,-0.2713,-0.0668,-0.0479,-0.1909,,
17.35,0.1592,-0.0617,-1.0326,0.4328,-0.3585,-0.2713,-0.0668,-0.0479,-0.1909,,
17.37,0.2206,-0.1002,-1.0463,0.4328,-0.3585,-0.2713,-0.0668,-0.0479,-0.1909,,
17.39,0.2633,-0.1343,-1.0444,0.4328,-0.3585,-0.2713,-0.0668,-0.0479,-0.1909,,
17.41,0.2489,-0.1332,-1.0989,0.4328,-0.3585,-0.2713,-0.0668,-0.0479,-0.1909,,
17.429,0.1929,-0.0857,-1.2746,0.4328,-0.3585,-0.2713,-0.0668,-0.0479,-0.1909,,
17.45,0.1929,-0.0857,-1.2746,0.3719,-0.2021,-0.3734,-0.0668,-0.0479,-0.1909,,
17.45,0.1421,-0.1012,-1.1438,0.3719,-0.2021,-0.3734,-0.0668,-0.0479,-0.1909,,
17.451,0.1421,-0.1012,-1.1438,0.3719,-0.2021,-0.3734,-0.1112,-0.1402,-0.1532,,
17.462,0.1421,-0.1012,-1.1438,0.3719,-0.2021,-0.3734,-0.1112,-0.1402,-0.1532,,
17.469,0.1872,-0.1536,-0.9661,0.3719,-0.2021,-0.3734,-0.1112,-0.1402,-0.1532,,
17.489,0.1315,-0.1343,-0.8684,0.3719,-0.2021,-0.3734,-0.1112,-0.1402,-0.1532,,
17.51,0.0405,-0.0861,-0.8985,0.3719,-0.2021,-0.3734,-0.1112,-0.1402,-0.1532,,
17.529,0.1139,-0.1141,-0.9748,0.3719,-0.2021,-0.3734,-0.1112,-0.1402,-0.1532,,
17.549,0.199,-0.1763,-0.931,0.3719,-0.2021,-0.3734,-0.1112,-0.1402,-0.1532,,
17.568,0.2937,-0.1952,-1.038,0.3719,-0.2021,-0.3734,-0.1112,-0.1402,-0.1532,,
17.588,0.2423,-0.1392,-1.1407,0.3719,-0.2021,-0.3734,-0.1112,-0.1402,-0.1532,,
17.608,0.1624,-0.0913,-1.2147,0.3719,-0.2021,-0.3734,-0.1112,-0.1402,-0.1532,,
17.609,0.1624,-0.0913,-1.2147,0.3719,-0.2021,-0.3734,-0.1112,-0.1402,-0.1532,,
17.628,0.1847,-0.0839,-1.1296,0.3719,-0.2021,-0.3734,-0.1112,-0.1402,-0.1532,,
17.649,0.2087,-0.0844,-1.0542,0.3719,-0.2021,-0.3734,-0.1112,-0.1402,-0.1532,,
17.649,0.2087,-0.0844,-1.0542,0.3719,-0.2021,-0.3734,0.1198,-0.0317,-0.2662,,
17.649,0.2087,-0.0844,-1.0542,0.2135,-0.3467,-0.0853,0.1198,-0.0317,-0.2662,,
17.664,0.2087,-0.0844,-1.0542,0.2135,-0.3467,-0.0853,0.1198,-0.0317,-0.2662,,
17.668,0.2226,-0.0827,-1.091,0.2135,-0.3467,-0.0853,0.1198,-0.0317,-0.2662,,
17.688,0.2088,-0.0697,-1.1334,0.2135,-0.3467,-0.0853,0.1198,-0.0317,-0.2662,,
17.708,0.2081,-0.0886,-1.081,0.2135,-0.3467,-0.0853,0.1198,-0.0317,-0.2662,,
17.728,0.2153,-0.1063,-1.01,0.2135,-0.3467,-0.0853,0.1198,-0.0317,-0.2662,,
17.748,0.1863,-0.0904,-0.9699,0.2135,-0.3467,-0.0853,0.1198,-0.0317,-0.2662,,
17.768,0.1553,-0.078,-0.9429,0.2135,-0.3467,-0.0853,0.1198,-0.0317,-0.2662,,
17.774,0.1553,-0.078,-0.9429,0.2135,-0.3467,-0.0853,0.1198,-0.0317,-0.2662,,
17.787,0.1695,-0.0992,-0.9209,0.2135,-0.3467,-0.0853,0.1198,-0.0317,-0.2662,,
17.807,0.1968,-0.1318,-0.9147,0.2135,-0.3467,-0.0853,0.1198,-0.0317,-0.2662,,
17.827,0.1901,-0.135,-0.8979,0.2135,-0.3467,-0.0853,0.1198,-0.0317,-0.2662,,
17.847,0.1293,-0.1377,-0.8352,0.2135,-0.3467,-0.0853,0.1198,-0.0317,-0.2662,,
17.848,0.1293,-0.1377,-0.8352,0.2135,-0.3467,-0.0853,0.1358,0.3494,-0.1287,,
17.848,0.1293,-0.1377,-0.8352,-0.3607,0.1036,0.1599,0.1358,0.3494,-0.1287,,
17.865,0.1293,-0.1377,-0.8352,-0.3607,0.1036,0.1599,0.1358,0.3494,-0.1287,,
17.866,0.0628,-0.1354,-0.7273,-0.3607,0.1036,0.1599,0.1358,0.3494,-0.1287,,
17.887,0.1287,-0.1743,-0.6974,-0.3607,0.1036,0.1599,0.1358,0.3494,-0.1287,,
17.907,0.2529,-0.2744,-0.7323,-0.3607,0.1036,0.1599,0.1358,0.3494,-0.1287,,
17.927,0.3363,-0.328,-0.8932,-0.3607,0.1036,0.1599,0.1358,0.3494,-0.1287,,
17.946,0.2668,-0.2696,-1.0873,-0.3607,0.1036,0.1599,0.1358,0.3494,-0.1287,,
17.966,0.211,-0.2773,-1.03,-0.3607,0.1036,0.1599,0.1358,0.3494,-0.1287,,
17.976,0.211,-0.2773,-1.03,-0.3607,0.1036,0.1599,0.1358,0.3494,-0.1287,,
17.986,0.2327,-0.3549,-0.8287,-0.3607,0.1036,0.1599,0.1358,0.3494,-0.1287,,
18.006,0.1533,-0.3501,-0.8424,-0.3607,0.1036,0.1599,0.1358,0.3494,-0.1287,,
18.026,0.1178,-0.3655,-0.9147,-0.3607,0.1036,0.1599,0.1358,0.3494,-0.1287,,
18.046,0.1178,-0.3655,-0.9147,-0.7549,-1.502,1.0143,0.1358,0.3494,-0.1287,,
18.047,0.2198,-0.4525,-0.9477,-0.7549,-1.502,1.0143,0.1358,0.3494,-0.1287,,
18.047,0.2198,-0.4525,-0.9477,-0.7549,-1.502,1.0143,0.1277,0.2746,-0.016,,
18.066,0.2481,-0.4697,-1.0388,-0.7549,-1.502,1.0143,0.1277,0.2746,-0.016,,
18.066,0.2481,-0.4697,-1.0388,-0.7549,-1.502,1.0143,0.1277,0.2746,-0.016,,
18.086,0.1519,-0.4318,-1.2655,-0.7549,-1.502,1.0143,0.1277,0.2746,-0.016,,
18.105,0.1619,-0.4007,-1.483,-0.7549,-1.502,1.0143,0.1277,0.2746,-0.016,,
18.125,0.2921,-0.3799,-1.397,-0.7549,-1.502,1.0143,0.1277,0.2746,-0.016,,
18.145,0.2194,-0.3626,-0.8756,-0.7549,-1.502,1.0143,0.1277,0.2746,-0.016,,
18.165,0.1967,-0.3462,-0.7452,-0.7549,-1.502,1.0143,0.1277,0.2746,-0.016,,
18.177,0.1967,-0.3462,-0.7452,-0.7549,-1.502,1.0143,0.1277,0.2746,-0.016,,
18.185,0.2265,-0.2933,-1.0644,-0.7549,-1.502,1.0143,0.1277,0.2746,-0.016,,
18.205,-0.0034,-0.237,-0.9467,-0.7549,-1.502,1.0143,0.1277,0.2746,-0.016,,
18.225,0.1728,-0.3765,-0.8637,-0.7549,-1.502,1.0143,0.1277,0.2746,-0.016,,
18.245,0.1728,-0.3765,-0.8637,-1.0857,-2.0481,-1.1563,0.1277,0.2746,-0.016,,
18.245,0.377,-0.421,-1.1468,-1.0857,-2.0481,-1.1563,0.1277,0.2746,-0.016,,
18.246,0.377,-0.421,-1.1468,-1.0857,-2.0481,-1.1563,0.0537,0.229,-0.0565,,
18.264,0.241,-0.3246,-1.4319,-1.0857,-2.0481,-1.1563,0.0537,0.229,-0.0565,,
18.268,0.241,-0.3246,-1.4319,-1.0857,-2.0481,-1.1563,0.0537,0.229,-0.0565,,
18.285,0.1866,-0.3793,-1.5879,-1.0857,-2.0481,-1.1563,0.0537,0.229,-0.0565,,
18.304,0.261,-0.3909,-1.6166,-1.0857,-2.0481,-1.1563,0.0537,0.229,-0.0565,,
18.324,0.2159,-0.2765,-1.3613,-1.0857,-2.0481,-1.1563,0.0537,0.229,-0.0565,,
18.344,0.188,-0.2092,-0.9228,-1.0857,-2.0481,-1.1563,0.0537,0.229,-0.0565,,
18.364,0.2131,-0.1144,-0.8093,-1.0857,-2.0481,-1.1563,0.0537,0.229,-0.0565,,
18.378,0.2131,-0.1144,-0.8093,-1.0857,-2.0481,-1.1563,0.0537,0.229,-0.0565,,
18.384,0.2027,0,-1.0586,-1.0857,-2.0481,-1.1563,0.0537,0.229,-0.0565,,
18.404,0.2105,0.1707,-1.563,-1.0857,-2.0481,-1.1563,0.0537,0.229,-0.0565,,
18.423,0.1955,0.312,-1.0148,-1.0857,-2.0481,-1.1563,0.0537,0.229,-0.0565,,
18.444,0.1955,0.312,-1.0148,-0.0145,-0.2761,-2.1497,0.0537,0.229,-0.0565,,
18.444,0.1255,0.2548,-0.9917,-0.0145,-0.2761,-2.1497,0.0537,0.229,-0.0565,,
18.444,0.1255,0.2548,-0.9917,-0.0145,-0.2761,-2.1497,-0.4557,-0.5752,-0.1402,,
18.463,0.2738,0.1321,-1.9169,-0.0145,-0.2761,-2.1497,-0.4557,-0.5752,-0.1402,,
18.469,0.2738,0.1321,-1.9169,-0.0145,-0.2761,-2.1497,-0.4557,-0.5752,-0.1402,,
18.483,0.2021,0.1235,-2.1361,-0.0145,-0.2761,-2.1497,-0.4557,-0.5752,-0.1402,,
18.503,0.1603,-0.0497,-1.3926,-0.0145,-0.2761,-2.1497,-0.4557,-0.5752,-0.1402,,
18.523,0.1658,-0.187,-0.8627,-0.0145,-0.2761,-2.1497,-0.4557,-0.5752,-0.1402,,
18.543,0.1223,-0.2231,-0.4285,-0.0145,-0.2761,-2.1497,-0.4557,-0.5752,-0.1402,,
18.563,0.1465,-0.2857,-0.1684,-0.0145,-0.2761,-2.1497,-0.4557,-0.5752,-0.1402,,
18.58,0.1465,-0.2857,-0.1684,-0.0145,-0.2761,-2.1497,-0.4557,-0.5752,-0.1402,,
18.582,0.1141,-0.3278,-0.1129,-0.0145,-0.2761,-2.1497,-0.4557,-0.5752,-0.1402,,
18.604,0.0359,-0.2844,-0.2162,-0.0145,-0.2761,-2.1497,-0.4557,-0.5752,-0.1402,,
18.622,-0.0819,-0.1935,-0.2958,-0.0145,-0.2761,-2.1497,-0.4557,-0.5752,-0.1402,,
18.642,-0.0819,-0.1935,-0.2958,-2.8404,0.8229,1.2574,-0.4557,-0.5752,-0.1402,,
18.643,-0.0477,-0.1704,-0.3557,-2.8404,0.8229,1.2574,-0.4557,-0.5752,-0.1402,,
18.644,-0.0477,-0.1704,-0.3557,-2.8404,0.8229,1.2574,0.7811,1.1158,0.2569,,
18.662,0.0363,-0.1568,-0.4896,-2.8404,0.8229,1.2574,0.7811,1.1158,0.2569,,
18.67,0.0363,-0.1568,-0.4896,-2.8404,0.8229,1.2574,0.7811,1.1158,0.2569,,
18.682,0.0722,-0.1991,-0.585,-2.8404,0.8229,1.2574,0.7811,1.1158,0.2569,,
18.702,0.1925,-0.2539,-0.657,-2.8404,0.8229,1.2574,0.7811,1.1158,0.2569,,
18.722,0.201,-0.2346,-0.8689,-2.8404,0.8229,1.2574,0.7811,1.1158,0.2569,,
18.741,0.1348,-0.2325,-1.0128,-2.8404,0.8229,1.2574,0.7811,1.1158,0.2569,,
18.762,0.1748,-0.3091,-0.956,-2.8404,0.8229,1.2574,0.7811,1.1158,0.2569,,
18.781,0.125,-0.3628,-0.7218,-2.8404,0.8229,1.2574,0.7811,1.1158,0.2569,,
18.782,0.125,-0.3628,-0.7218,-2.8404,0.8229,1.2574,0.7811,1.1158,0.2569,,
18.801,0.1473,-0.4592,-0.6117,-2.8404,0.8229,1.2574,0.7811,1.1158,0.2569,,
18.821,0.2202,-0.5282,-0.6439,-2.8404,0.8229,1.2574,0.7811,1.1158,0.2569,,
18.841,0.2202,-0.5282,-0.6439,-1.7783,-0.5059,1.843,0.7811,1.1158,0.2569,,
18.842,0.242,-0.5363,-0.7424,-1.7783,-0.5059,1.843,0.7811,1.1158,0.2569,,
18.842,0.242,-0.5363,-0.7424,-1.7783,-0.5059,1.843,0.0993,-0.2028,0.3134,,
18.861,0.18,-0.4966,-0.7739,-1.7783,-0.5059,1.843,0.0993,-0.2028,0.3134,,
18.872,0.18,-0.4966,-0.7739,-1.7783,-0.5059,1.843,0.0993,-0.2028,0.3134,,
18.881,0.1715,-0.525,-0.8164,-1.7783,-0.5059,1.843,0.0993,-0.2028,0.3134,,
18.9,0.2181,-0.5494,-0.8638,-1.7783,-0.5059,1.843,0.0993,-0.2028,0.3134,,
18.921,0.3224,-0.5669,-1.0453,-1.7783,-0.5059,1.843,0.0993,-0.2028,0.3134,,
18.94,0.3844,-0.5145,-1.0909,-1.7783,-0.5059,1.843,0.0993,-0.2028,0.3134,,
18.96,0.4482,-0.4847,-1.123,-1.7783,-0.5059,1.843,0.0993,-0.2028,0.3134,,
18.98,0.4373,-0.3642,-1.3324,-1.7783,-0.5059,1.843,0.0993,-0.2028,0.3134,,
18.982,0.4373,-0.3642,-1.3324,-1.7783,-0.5059,1.843,0.0993,-0.2028,0.3134,,
19,0.2835,-0.2365,-1.3539,-1.7783,-0.5059,1.843,0.0993,-0.2028,0.3134,,
19.02,0.2729,-0.1966,-1.5739,-1.7783,-0.5059,1.843,0.0993,-0.2028,0.3134,,
19.04,0.2729,-0.1966,-1.5739,1.3399,-1.7689,-1.8764,0.0993,-0.2028,0.3134,,
19.04,0.3285,-0.1263,-1.8259,1.3399,-1.7689,-1.8764,0.0993,-0.2028,0.3134,,
19.041,0.3285,-0.1263,-1.8259,1.3399,-1.7689,-1.8764,-0.2729,-0.9734,-0.1794,,
19.059,0.1764,-0.0193,-1.9353,1.3399,-1.7689,-1.8764,-0.2729,-0.9734,-0.1794,,
19.073,0.1764,-0.0193,-1.9353,1.3399,-1.7689,-1.8764,-0.2729,-0.9734,-0.1794,,
19.079,0.135,0.0148,-2.0862,1.3399,-1.7689,-1.8764,-0.2729,-0.9734,-0.1794,,
19.099,0.1662,-0.0954,-1.401,1.3399,-1.7689,-1.8764,-0.2729,-0.9734,-0.1794,,
19.119,0.1965,-0.2194,-0.9345,1.3399,-1.7689,-1.8764,-0.2729,-0.9734,-0.1794,,
19.139,0.2484,-0.2711,-1.0134,1.3399,-1.7689,-1.8764,-0.2729,-0.9734,-0.1794,,
19.159,0.1189,-0.1989,-1.1797,1.3399,-1.7689,-1.8764,-0.2729,-0.9734,-0.1794,,
19.179,0.0063,-0.1932,-1.0846,1.3399,-1.7689,-1.8764,-0.2729,-0.9734,-0.1794,,
19.199,0.0097,-0.2252,-0.8345,1.3399,-1.7689,-1.8764,-0.2729,-0.9734,-0.1794,,
19.219,0.0678,-0.2579,-0.5823,1.3399,-1.7689,-1.8764,-0.2729,-0.9734,-0.1794,,
19.22,0.0678,-0.2579,-0.5823,1.3399,-1.7689,-1.8764,-0.2729,-0.9734,-0.1794,,
19.239,0.0971,-0.2787,-0.4895,1.3399,-1.7689,-1.8764,-0.2729,-0.9734,-0.1794,,
19.239,0.0971,-0.2787,-0.4895,1.3399,-1.7689,-1.8764,0.0522,0.1393,-0.0461,,
19.24,0.0971,-0.2787,-0.4895,-0.6987,0.5581,-1.612,0.0522,0.1393,-0.0461,,
19.259,0.1219,-0.3055,-0.5674,-0.6987,0.5581,-1.612,0.0522,0.1393,-0.0461,,
19.276,0.1219,-0.3055,-0.5674,-0.6987,0.5581,-1.612,0.0522,0.1393,-0.0461,,
19.278,0.1177,-0.3214,-0.6463,-0.6987,0.5581,-1.612,0.0522,0.1393,-0.0461,,
19.298,0.1673,-0.3329,-0.8215,-0.6987,0.5581,-1.612,0.0522,0.1393,-0.0461,,
19.318,0.1383,-0.2793,-0.9744,-0.6987,0.5581,-1.612,0.0522,0.1393,-0.0461,,
19.338,0.0967,-0.2597,-1.0294,-0.6987,0.5581,-1.612,0.0522,0.1393,-0.0461,,
19.358,0.1395,-0.2865,-0.9658,-0.6987,0.5581,-1.612,0.0522,0.1393,-0.0461,,
19.378,0.1265,-0.2564,-0.8154,-0.6987,0.5581,-1.612,0.0522,0.1393,-0.0461,,
19.398,0.1197,-0.2115,-0.7165,-0.6987,0.5581,-1.612,0.0522,0.1393,-0.0461,,
19.418,0.1919,-0.2018,-0.9104,-0.6987,0.5581,-1.612,0.0522,0.1393,-0.0461,,
19.439,0.1919,-0.2018,-0.9104,-0.2672,-0.5129,1.3328,0.0522,0.1393,-0.0461,,
19.439,0.1494,-0.1162,-1.1315,-0.2672,-0.5129,1.3328,0.0522,0.1393,-0.0461,,
19.439,0.1494,-0.1162,-1.1315,-0.2672,-0.5129,1.3328,-0.1086,-0.1883,-0.2161,,
19.459,0.1364,-0.0883,-1.0888,-0.2672,-0.5129,1.3328,-0.1086,-0.1883,-0.2161,,
19.479,0.1516,-0.0963,-0.9384,-0.2672,-0.5129,1.3328,-0.1086,-0.1883,-0.2161,,
19.48,0.1516,-0.0963,-0.9384,-0.2672,-0.5129,1.3328,-0.1086,-0.1883,-0.2161,,
19.497,0.1509,-0.1122,-0.8826,-0.2672,-0.5129,1.3328,-0.1086,-0.1883,-0.2161,,
19.517,0.1651,-0.0978,-0.928,-0.2672,-0.5129,1.3328,-0.1086,-0.1883,-0.2161,,
19.537,0.1371,-0.0731,-1.0516,-0.2672,-0.5129,1.3328,-0.1086,-0.1883,-0.2161,,
19.557,0.1969,-0.0686,-1.2389,-0.2672,-0.5129,1.3328,-0.1086,-0.1883,-0.2161,,
19.577,0.1654,-0.0609,-1.4373,-0.2672,-0.5129,1.3328,-0.1086,-0.1883,-0.2161,,
19.588,0.1654,-0.0609,-1.4373,-0.2672,-0.5129,1.3328,-0.1086,-0.1883,-0.2161,,
19.596,0.094,-0.019,-1.4273,-0.2672,-0.5129,1.3328,-0.1086,-0.1883,-0.2161,,
19.617,0.1322,0.0171,-1.1627,-0.2672,-0.5129,1.3328,-0.1086,-0.1883,-0.2161,,
19.637,0.1322,0.0171,-1.1627,0.2773,0.4127,-0.8328,-0.1086,-0.1883,-0.2161,,
19.637,0.1873,-0.073,-0.8848,0.2773,0.4127,-0.8328,-0.1086,-0.1883,-0.2161,,
19.637,0.1873,-0.073,-0.8848,0.2773,0.4127,-0.8328,-0.4324,-0.2503,-0.2387,,
19.657,0.1803,-0.0941,-0.8255,0.2773,0.4127,-0.8328,-0.4324,-0.2503,-0.2387,,
19.678,0.1343,-0.0705,-0.8878,0.2773,0.4127,-0.8328,-0.4324,-0.2503,-0.2387,,
19.68,0.1343,-0.0705,-0.8878,0.2773,0.4127,-0.8328,-0.4324,-0.2503,-0.2387,,
19.696,0.1409,-0.0473,-1.2151,0.2773,0.4127,-0.8328,-0.4324,-0.2503,-0.2387,,
19.716,0.0829,-0.0027,-0.9537,0.2773,0.4127,-0.8328,-0.4324,-0.2503,-0.2387,,
19.737,0.1395,-0.1258,-0.7663,0.2773,0.4127,-0.8328,-0.4324,-0.2503,-0.2387,,
19.755,0.3066,-0.2219,-0.8346,0.2773,0.4127,-0.8328,-0.4324,-0.2503,-0.2387,,
19.774,0.2996,-0.1189,-1.2569,0.2773,0.4127,-0.8328,-0.4324,-0.2503,-0.2387,,
19.788,0.2996,-0.1189,-1.2569,0.2773,0.4127,-0.8328,-0.4324,-0.2503,-0.2387,,
19.795,0.1171,0.0036,-1.4408,0.2773,0.4127,-0.8328,-0.4324,-0.2503,-0.2387,,
19.814,0.0753,-0.0153,-1.1652,0.2773,0.4127,-0.8328,-0.4324,-0.2503,-0.2387,,
19.835,0.0927,-0.0923,-0.7479,0.2773,0.4127,-0.8328,-0.4324,-0.2503,-0.2387,,
19.835,0.0927,-0.0923,-0.7479,0.2773,0.4127,-0.8328,0.1671,0.4193,0.046,,
19.835,0.0927,-0.0923,-0.7479,-0.4613,0.6153,-0.0775,0.1671,0.4193,0.046,,
19.854,0.1058,-0.1006,-0.5432,-0.4613,0.6153,-0.0775,0.1671,0.4193,0.046,,
19.875,0.1619,-0.1043,-0.6212,-0.4613,0.6153,-0.0775,0.1671,0.4193,0.046,,
19.879,0.1619,-0.1043,-0.6212,-0.4613,0.6153,-0.0775,0.1671,0.4193,0.046,,
19.9,0.2232,-0.1247,-0.7794,-0.4613,0.6153,-0.0775,0.1671,0.4193,0.046,,
19.914,0.2719,-0.1272,-1.0593,-0.4613,0.6153,-0.0775,0.1671,0.4193,0.046,,
19.934,0.1969,-0.1102,-1.0967,-0.4613,0.6153,-0.0775,0.1671,0.4193,0.046,,
19.954,0.3157,-0.1675,-1.0541,-0.4613,0.6153,-0.0775,0.1671,0.4193,0.046,,
19.973,0.3523,-0.1642,-1.1062,-0.4613,0.6153,-0.0775,0.1671,0.4193,0.046,,
19.989,0.3523,-0.1642,-1.1062,-0.4613,0.6153,-0.0775,0.1671,0.4193,0.046,,
19.994,0.3083,-0.1026,-1.1914,-0.4613,0.6153,-0.0775,0.1671,0.4193,0.046,,
20.014,0.2806,-0.0901,-1.1001,-0.4613,0.6153,-0.0775,0.1671,0.4193,0.046,,
20.034,0.2806,-0.0901,-1.1001,-0.2411,0.2904,0.3083,0.1671,0.4193,0.046,,
20.034,0.2274,-0.1039,-0.9595,-0.2411,0.2904,0.3083,0.1671,0.4193,0.046,,
20.034,0.2274,-0.1039,-0.9595,-0.2411,0.2904,0.3083,0.0024,0.3637,0.1847,,
20.053,0.1971,-0.0962,-0.9357,-0.2411,0.2904,0.3083,0.0024,0.3637,0.1847,,
20.073,0.1329,-0.0848,-0.9742,-0.2411,0.2904,0.3083,0.0024,0.3637,0.1847,,
20.08,0.1329,-0.0848,-0.9742,-0.2411,0.2904,0.3083,0.0024,0.3637,0.1847,,
20.093,0.1703,-0.1175,-1.0867,-0.2411,0.2904,0.3083,0.0024,0.3637,0.1847,,
20.113,0.2583,-0.1504,-1.1843,-0.2411,0.2904,0.3083,0.0024,0.3637,0.1847,,
20.133,0.2283,-0.1559,-1.108,-0.2411,0.2904,0.3083,0.0024,0.3637,0.1847,,
20.153,0.2601,-0.1983,-0.9543,-0.2411,0.2904,0.3083,0.0024,0.3637,0.1847,,
20.173,0.2536,-0.1774,-0.9097,-0.2411,0.2904,0.3083,0.0024,0.3637,0.1847,,
20.191,0.2536,-0.1774,-0.9097,-0.2411,0.2904,0.3083,0.0024,0.3637,0.1847,,
20.192,0.2434,-0.1627,-0.8732,-0.2411,0.2904,0.3083,0.0024,0.3637,0.1847,,
20.212,0.3265,-0.1773,-0.892,-0.2411,0.2904,0.3083,0.0024,0.3637,0.1847,,
20.232,0.3234,-0.1874,-0.9075,-0.2411,0.2904,0.3083,0.0024,0.3637,0.1847,,
20.232,0.3234,-0.1874,-0.9075,-0.2411,0.2904,0.3083,0.1541,0.5799,0.2011,,
20.233,0.3234,-0.1874,-0.9075,-1.2468,0.3776,-0.3936,0.1541,0.5799,0.2011,,
20.252,0.3339,-0.1835,-0.9616,-1.2468,0.3776,-0.3936,0.1541,0.5799,0.2011,,
20.272,0.2966,-0.1368,-1.0486,-1.2468,0.3776,-0.3936,0.1541,0.5799,0.2011,,
20.282,0.2966,-0.1368,-1.0486,-1.2468,0.3776,-0.3936,0.1541,0.5799,0.2011,,
20.292,0.2577,-0.1263,-1.0567,-1.2468,0.3776,-0.3936,0.1541,0.5799,0.2011,,
20.312,0.2894,-0.1381,-1.0926,-1.2468,0.3776,-0.3936,0.1541,0.5799,0.2011,,
20.332,0.2972,-0.125,-1.1202,-1.2468,0.3776,-0.3936,0.1541,0.5799,0.2011,,
20.351,0.2695,-0.1098,-1.0951,-1.2468,0.3776,-0.3936,0.1541,0.5799,0.2011,,
20.371,0.2222,-0.0687,-1.0378,-1.2468,0.3776,-0.3936,0.1541,0.5799,0.2011,,
20.391,0.1888,-0.0534,-1.0797,-1.2468,0.3776,-0.3936,0.1541,0.5799,0.2011,,
20.411,0.0996,-0.0105,-1.1234,-1.2468,0.3776,-0.3936,0.1541,0.5799,0.2011,,
20.431,0.0996,-0.0105,-1.1234,-0.4679,0.3234,-0.9006,0.1541,0.5799,0.2011,,
20.431,0.0987,-0.023,-1.1459,-0.4679,0.3234,-0.9006,0.1541,0.5799,0.2011,,
20.432,0.0987,-0.023,-1.1459,-0.4679,0.3234,-0.9006,-0.3215,-0.412,0.06,,
20.451,0.1869,-0.0775,-1.0595,-0.4679,0.3234,-0.9006,-0.3215,-0.412,0.06,,
20.471,0.2238,-0.1063,-1.0466,-0.4679,0.3234,-0.9006,-0.3215,-0.412,0.06,,
20.483,0.2238,-0.1063,-1.0466,-0.4679,0.3234,-0.9006,-0.3215,-0.412,0.06,,
20.491,0.2619,-0.1252,-1.0337,-0.4679,0.3234,-0.9006,-0.3215,-0.412,0.06,,
20.51,0.2391,-0.1201,-0.9985,-0.4679,0.3234,-0.9006,-0.3215,-0.412,0.06,,
20.531,0.2112,-0.1006,-1.0708,-0.4679,0.3234,-0.9006,-0.3215,-0.412,0.06,,
20.55,0.1917,-0.0643,-1.1022,-0.4679,0.3234,-0.9006,-0.3215,-0.412,0.06,,
20.57,0.1696,-0.0967,-0.9057,-0.4679,0.3234,-0.9006,-0.3215,-0.412,0.06,,
20.59,0.257,-0.1742,-0.8384,-0.4679,0.3234,-0.9006,-0.3215,-0.412,0.06,,
20.61,0.3259,-0.1641,-1.0295,-0.4679,0.3234,-0.9006,-0.3215,-0.412,0.06,,
20.63,0.3259,-0.1641,-1.0295,-0.4688,0.1582,-0.3619,-0.3215,-0.412,0.06,,
20.63,0.2382,-0.0993,-1.1536,-0.4688,0.1582,-0.3619,-0.3215,-0.412,0.06,,
20.631,0.2382,-0.0993,-1.1536,-0.4688,0.1582,-0.3619,-0.0185,-0.0045,0.0534,,
20.649,0.199,-0.0949,-1.1214,-0.4688,0.1582,-0.3619,-0.0185,-0.0045,0.0534,,
20.669,0.2109,-0.1118,-0.9986,-0.4688,0.1582,-0.3619,-0.0185,-0.0045,0.0534,,
20.684,0.2109,-0.1118,-0.9986,-0.4688,0.1582,-0.3619,-0.0185,-0.0045,0.0534,,
20.689,0.2548,-0.1218,-1.0141,-0.4688,0.1582,-0.3619,-0.0185,-0.0045,0.0534,,
20.709,0.2303,-0.0425,-1.1093,-0.4688,0.1582,-0.3619,-0.0185,-0.0045,0.0534,,
20.729,0.1996,-0.0212,-1.1247,-0.4688,0.1582,-0.3619,-0.0185,-0.0045,0.0534,,
20.749,0.1665,-0.0534,-1.0058,-0.4688,0.1582,-0.3619,-0.0185,-0.0045,0.0534,,
20.769,0.2647,-0.1107,-0.9305,-0.4688,0.1582,-0.3619,-0.0185,-0.0045,0.0534,,
20.789,0.2749,-0.0733,-1.0499,-0.4688,0.1582,-0.3619,-0.0185,-0.0045,0.0534,,
20.809,0.1531,-0.0076,-1.0931,-0.4688,0.1582,-0.3619,-0.0185,-0.0045,0.0534,,
20.828,0.1742,-0.0292,-1.0316,-0.4688,0.1582,-0.3619,-0.0185,-0.0045,0.0534,,
20.829,0.1742,-0.0292,-1.0316,-0.4688,0.1582,-0.3619,-0.0392,-0.1057,-0.032,,
20.83,0.1742,-0.0292,-1.0316,-0.4241,0.4927,-0.5062,-0.0392,-0.1057,-0.032,,
20.831,0.1742,-0.0292,-1.0316,-0.4241,0.4927,-0.5062,-0.0392,-0.1057,-0.032,,
20.848,0.2366,-0.0926,-0.9202,-0.4241,0.4927,-0.5062,-0.0392,-0.1057,-0.032,,
20.868,0.2351,-0.1625,-0.8277,-0.4241,0.4927,-0.5062,-0.0392,-0.1057,-0.032,,
20.886,0.2351,-0.1625,-0.8277,-0.4241,0.4927,-0.5062,-0.0392,-0.1057,-0.032,,
20.888,0.2921,-0.2165,-0.9085,-0.4241,0.4927,-0.5062,-0.0392,-0.1057,-0.032,,
20.908,0.2066,-0.1488,-1.0882,-0.4241,0.4927,-0.5062,-0.0392,-0.1057,-0.032,,
20.928,0.132,-0.0861,-1.0879,-0.4241,0.4927,-0.5062,-0.0392,-0.1057,-0.032,,
20.948,0.1546,-0.0915,-0.9126,-0.4241,0.4927,-0.5062,-0.0392,-0.1057,-0.032,,
20.968,0.2365,-0.139,-0.8005,-0.4241,0.4927,-0.5062,-0.0392,-0.1057,-0.032,,
20.988,0.2719,-0.1138,-0.9016,-0.4241,0.4927,-0.5062,-0.0392,-0.1057,-0.032,,
21.008,0.2303,-0.039,-1.092,-0.4241,0.4927,-0.5062,-0.0392,-0.1057,-0.032,,
21.027,0.2048,-0.0215,-1.0678,-0.4241,0.4927,-0.5062,-0.0392,-0.1057,-0.032,,
21.027,0.2048,-0.0215,-1.0678,-0.4241,0.4927,-0.5062,-0.0189,-0.1236,-0.0544,,
21.028,0.2048,-0.0215,-1.0678,-0.1184,-0.0056,0.3909,-0.0189,-0.1236,-0.0544,,
21.047,0.2132,-0.0648,-1.0038,-0.1184,-0.0056,0.3909,-0.0189,-0.1236,-0.0544,,
21.067,0.1987,-0.0945,-0.9021,-0.1184,-0.0056,0.3909,-0.0189,-0.1236,-0.0544,,
21.087,0.2037,-0.1026,-0.9995,-0.1184,-0.0056,0.3909,-0.0189,-0.1236,-0.0544,,
21.087,0.2037,-0.1026,-0.9995,-0.1184,-0.0056,0.3909,-0.0189,-0.1236,-0.0544,,
21.107,0.2015,-0.1252,-1.0714,-0.1184,-0.0056,0.3909,-0.0189,-0.1236,-0.0544,,
21.127,0.2172,-0.1539,-0.9973,-0.1184,-0.0056,0.3909,-0.0189,-0.1236,-0.0544,,
21.147,0.2105,-0.1476,-0.9087,-0.1184,-0.0056,0.3909,-0.0189,-0.1236,-0.0544,,
21.166,0.1291,-0.1009,-0.8776,-0.1184,-0.0056,0.3909,-0.0189,-0.1236,-0.0544,,
21.186,0.134,-0.0965,-0.8434,-0.1184,-0.0056,0.3909,-0.0189,-0.1236,-0.0544,,
21.198,0.134,-0.0965,-0.8434,-0.1184,-0.0056,0.3909,-0.0189,-0.1236,-0.0544,,
21.207,0.232,-0.1495,-0.7772,-0.1184,-0.0056,0.3909,-0.0189,-0.1236,-0.0544,,
21.226,0.232,-0.1495,-0.7772,-0.3366,0.0115,0.6504,-0.0189,-0.1236,-0.0544,,
21.227,0.357,-0.2051,-0.8761,-0.3366,0.0115,0.6504,-0.0189,-0.1236,-0.0544,,
21.227,0.357,-0.2051,-0.8761,-0.3366,0.0115,0.6504,0.0925,0.0601,-0.0772,,
21.246,0.3787,-0.1447,-1.1802,-0.3366,0.0115,0.6504,0.0925,0.0601,-0.0772,,
21.266,0.2459,-0.0715,-1.2279,-0.3366,0.0115,0.6504,0.0925,0.0601,-0.0772,,
21.286,0.1737,-0.069,-1.2472,-0.3366,0.0115,0.6504,0.0925,0.0601,-0.0772,,
21.288,0.1737,-0.069,-1.2472,-0.3366,0.0115,0.6504,0.0925,0.0601,-0.0772,,
21.306,0.2128,-0.0879,-1.1856,-0.3366,0.0115,0.6504,0.0925,0.0601,-0.0772,,
21.329,0.2496,-0.0777,-1.1571,-0.3366,0.0115,0.6504,0.0925,0.0601,-0.0772,,
21.346,0.2536,-0.0989,-1.041,-0.3366,0.0115,0.6504,0.0925,0.0601,-0.0772,,
21.366,0.2326,-0.1519,-0.9176,-0.3366,0.0115,0.6504,0.0925,0.0601,-0.0772,,
21.386,0.2156,-0.1273,-0.973,-0.3366,0.0115,0.6504,0.0925,0.0601,-0.0772,,
21.399,0.2156,-0.1273,-0.973,-0.3366,0.0115,0.6504,0.0925,0.0601,-0.0772,,
21.404,0.1135,-0.0477,-1.0232,-0.3366,0.0115,0.6504,0.0925,0.0601,-0.0772,,
21.424,0.0589,-0.0256,-0.9207,-0.3366,0.0115,0.6504,0.0925,0.0601,-0.0772,,
21.425,0.0589,-0.0256,-0.9207,-0.3366,0.0115,0.6504,-0.0596,-0.0386,-0.087,,
21.425,0.0589,-0.0256,-0.9207,-0.2325,0.1775,-0.857,-0.0596,-0.0386,-0.087,,
21.445,0.2125,-0.1207,-0.8226,-0.2325,0.1775,-0.857,-0.0596,-0.0386,-0.087,,
21.465,0.3347,-0.1565,-0.9715,-0.2325,0.1775,-0.857,-0.0596,-0.0386,-0.087,,
21.485,0.2828,-0.1212,-1.0934,-0.2325,0.1775,-0.857,-0.0596,-0.0386,-0.087,,
21.49,0.2828,-0.1212,-1.0934,-0.2325,0.1775,-0.857,-0.0596,-0.0386,-0.087,,
21.504,0.3543,-0.1473,-1.1543,-0.2325,0.1775,-0.857,-0.0596,-0.0386,-0.087,,
21.525,0.3168,-0.1069,-1.1973,-0.2325,0.1775,-0.857,-0.0596,-0.0386,-0.087,,
21.544,0.145,-0.0512,-1.0376,-0.2325,0.1775,-0.857,-0.0596,-0.0386,-0.087,,
21.564,0.0883,-0.0723,-0.8185,-0.2325,0.1775,-0.857,-0.0596,-0.0386,-0.087,,
21.585,0.1486,-0.1247,-0.7845,-0.2325,0.1775,-0.857,-0.0596,-0.0386,-0.087,,
21.601,0.1486,-0.1247,-0.7845,-0.2325,0.1775,-0.857,-0.0596,-0.0386,-0.087,,
21.604,0.2081,-0.1417,-0.8623,-0.2325,0.1775,-0.857,-0.0596,-0.0386,-0.087,,
21.624,0.2081,-0.1417,-0.8623,-0.1247,-0.2441,0.2148,-0.0596,-0.0386,-0.087,,
21.625,0.2884,-0.1765,-1.0047,-0.1247,-0.2441,0.2148,-0.0596,-0.0386,-0.087,,
21.625,0.2884,-0.1765,-1.0047,-0.1247,-0.2441,0.2148,-0.0652,0.0716,0.0063,,
21.644,0.3408,-0.2,-1.1223,-0.1247,-0.2441,0.2148,-0.0652,0.0716,0.0063,,
21.664,0.2964,-0.1913,-1.0521,-0.1247,-0.2441,0.2148,-0.0652,0.0716,0.0063,,
21.684,0.1742,-0.1541,-1.0487,-0.1247,-0.2441,0.2148,-0.0652,0.0716,0.0063,,
21.692,0.1742,-0.1541,-1.0487,-0.1247,-0.2441,0.2148,-0.0652,0.0716,0.0063,,
21.704,0.041,-0.088,-1.0964,-0.1247,-0.2441,0.2148,-0.0652,0.0716,0.0063,,
21.723,0.0802,-0.1167,-1.0823,-0.1247,-0.2441,0.2148,-0.0652,0.0716,0.0063,,
21.743,0.2471,-0.1842,-0.9718,-0.1247,-0.2441,0.2148,-0.0652,0.0716,0.0063,,
21.763,0.346,-0.2575,-0.9659,-0.1247,-0.2441,0.2148,-0.0652,0.0716,0.0063,,
21.783,0.322,-0.259,-1.116,-0.1247,-0.2441,0.2148,-0.0652,0.0716,0.0063,,
21.803,0.2224,-0.1906,-1.2558,-0.1247,-0.2441,0.2148,-0.0652,0.0716,0.0063,,
21.803,0.2224,-0.1906,-1.2558,-0.1247,-0.2441,0.2148,-0.0652,0.0716,0.0063,,
21.823,0.0739,-0.1664,-1.0893,-0.1247,-0.2441,0.2148,-0.0652,0.0716,0.0063,,
21.824,0.0739,-0.1664,-1.0893,-0.1247,-0.2441,0.2148,-0.1257,-0.4304,0.0438,,
21.824,0.0739,-0.1664,-1.0893,0.4715,-0.9969,-0.592,-0.1257,-0.4304,0.0438,,
21.843,0.0432,-0.174,-0.9594,0.4715,-0.9969,-0.592,-0.1257,-0.4304,0.0438,,
21.863,0.071,-0.1257,-1.0146,0.4715,-0.9969,-0.592,-0.1257,-0.4304,0.0438,,
21.883,0.136,-0.096,-1.0697,0.4715,-0.9969,-0.592,-0.1257,-0.4304,0.0438,,
21.893,0.136,-0.096,-1.0697,0.4715,-0.9969,-0.592,-0.1257,-0.4304,0.0438,,
21.903,0.2525,-0.1487,-1.027,0.4715,-0.9969,-0.592,-0.1257,-0.4304,0.0438,,
21.922,0.3358,-0.2125,-0.8972,0.4715,-0.9969,-0.592,-0.1257,-0.4304,0.0438,,
21.942,0.3407,-0.1993,-1.0183,0.4715,-0.9969,-0.592,-0.1257,-0.4304,0.0438,,
21.962,0.194,-0.0771,-1.1484,0.4715,-0.9969,-0.592,-0.1257,-0.4304,0.0438,,
21.982,0.0066,0.0013,-0.9981,0.4715,-0.9969,-0.592,-0.1257,-0.4304,0.0438,,
22.002,0.0949,-0.056,-0.7769,0.4715,-0.9969,-0.592,-0.1257,-0.4304,0.0438,,
22.004,0.0949,-0.056,-0.7769,0.4715,-0.9969,-0.592,-0.1257,-0.4304,0.0438,,
22.022,0.1861,-0.0934,-0.7393,0.4715,-0.9969,-0.592,-0.1257,-0.4304,0.0438,,
22.023,0.1861,-0.0934,-0.7393,0.4715,-0.9969,-0.592,0.0533,0.2435,-0.0951,,
22.023,0.1861,-0.0934,-0.7393,-0.4735,-0.2964,0.415,0.0533,0.2435,-0.0951,,
22.042,0.2114,-0.0934,-0.88,-0.4735,-0.2964,0.415,0.0533,0.2435,-0.0951,,
22.062,0.2253,-0.1006,-1.0386,-0.4735,-0.2964,0.415,0.0533,0.2435,-0.0951,,
22.081,0.1939,-0.1149,-1.0176,-0.4735,-0.2964,0.415,0.0533,0.2435,-0.0951,,
22.096,0.1939,-0.1149,-1.0176,-0.4735,-0.2964,0.415,0.0533,0.2435,-0.0951,,
22.101,0.2143,-0.1334,-0.9933,-0.4735,-0.2964,0.415,0.0533,0.2435,-0.0951,,
22.121,0.1861,-0.0996,-0.9815,-0.4735,-0.2964,0.415,0.0533,0.2435,-0.0951,,
22.141,0.1574,-0.0484,-0.8337,-0.4735,-0.2964,0.415,0.0533,0.2435,-0.0951,,
22.161,0.2272,-0.092,-0.7817,-0.4735,-0.2964,0.415,0.0533,0.2435,-0.0951,,
22.181,0.2898,-0.1098,-0.8779,-0.4735,-0.2964,0.415,0.0533,0.2435,-0.0951,,
22.201,0.3215,-0.078,-1.0512,-0.4735,-0.2964,0.415,0.0533,0.2435,-0.0951,,
22.206,0.3215,-0.078,-1.0512,-0.4735,-0.2964,0.415,0.0533,0.2435,-0.0951,,
22.224,0.3215,-0.078,-1.0512,0.4372,-0.1532,0.4412,0.0533,0.2435,-0.0951,,
22.224,0.2563,-0.0356,-1.2189,0.4372,-0.1532,0.4412,0.0533,0.2435,-0.0951,,
22.224,0.2563,-0.0356,-1.2189,0.4372,-0.1532,0.4412,-0.0358,-0.1777,-0.1628,,
22.24,0.1737,0.003,-1.1695,0.4372,-0.1532,0.4412,-0.0358,-0.1777,-0.1628,,
22.26,0.1967,0.0167,-1.0468,0.4372,-0.1532,0.4412,-0.0358,-0.1777,-0.1628,,
22.28,0.1745,0.0068,-0.9902,0.4372,-0.1532,0.4412,-0.0358,-0.1777,-0.1628,,
22.297,0.1745,0.0068,-0.9902,0.4372,-0.1532,0.4412,-0.0358,-0.1777,-0.1628,,
22.3,0.2443,-0.0214,-0.9498,0.4372,-0.1532,0.4412,-0.0358,-0.1777,-0.1628,,
